Source File Name:	16,1
Signal:	FFT - Vib Velocity - Mag. & Phase

Frequency	Magnitude	Phase
[ Hz ]	[ m/s ]	[ ° ]
10	20.99309	28.29001
10.5	22.01844	8.000537
11	22.91915	-13.19512
11.5	23.40221	-35.53054
12	23.65367	-56.67056
12.5	23.22368	-77.21932
13	25.64091	-95.55312
13.5	27.52657	-119.2548
14	26.80944	-137.2282
14.5	28.94382	-161.2785
15	31.76961	-179.0392
15.5	34.7122	156.4769
16	37.62152	132.0032
16.5	41.44773	107.116
17	45.06665	80.33193
17.5	48.38214	52.46
18	50.6651	24.18225
18.5	53.79152	-5.518698
19	51.90588	-36.6712
19.5	49.24611	-68.72922
20	43.32149	-99.10948
20.5	37.91589	-125.5162
21	33.65899	-150.0391
21.5	29.36452	-176.228
22	27.68336	165.143
22.5	23.76018	141.6485
23	21.60149	130.3031
23.5	18.27682	106.8884
24	17.14821	89.44688
24.5	16.23846	73.85858
25	15.73656	56.99709
25.5	15.81282	38.58459
26	15.24911	21.35106
26.5	15.22443	4.51053
27	15.2425	-13.21918
27.5	14.99546	-29.96408
28	15.24007	-47.47615
28.5	14.87059	-65.26903
29	14.96341	-81.76358
29.5	14.8968	-98.82712
30	14.72339	-115.715
30.5	14.5904	-132.601
31	14.33241	-149.6042
31.5	14.44349	-166.2403
32	14.512	177.0685
32.5	14.73772	160.192
33	14.85307	142.7771
33.5	14.95239	125.9279
34	15.07838	108.4932
34.5	15.01427	90.71446
35	15.0579	73.75259
35.5	14.96659	55.44413
36	15.0809	38.3901
36.5	15.32473	19.92674
37	15.18282	1.166484
37.5	15.03613	-15.77117
38	14.90772	-33.32676
38.5	14.62907	-51.89704
39	14.07942	-69.57711
39.5	13.54274	-86.81654
40	12.91239	-103.6258
40.5	12.78671	-119.9857
41	12.31339	-136.1992
41.5	11.8863	-151.3726
42	11.62355	-166.2286
42.5	11.37203	178.5059
43	11.233	163.0294
43.5	11.12283	148.051
44	11.13461	132.1053
44.5	11.25071	114.8097
45	10.99218	98.38892
45.5	10.86409	81.70387
46	10.49504	65.91266
46.5	10.41535	50.9445
47	10.18354	34.99916
47.5	9.937731	20.3073
48	9.937338	4.593867
48.5	10.00758	-10.36778
49	10.18293	-26.08391
49.5	10.41292	-43.04402
50	10.17514	-59.21792
50.5	10.16275	-75.64574
51	9.942151	-92.81712
51.5	9.926943	-107.8993
52	9.609833	-125.4489
52.5	9.467133	-139.6606
53	9.475546	-155.1938
53.5	9.588991	-172.0509
54	9.608667	171.2037
54.5	9.344665	154.9237
55	9.406993	138.1079
55.5	9.34839	121.5997
56	8.96986	103.0334
56.5	8.747197	88.10162
57	8.581553	70.22301
57.5	8.257495	54.87294
58	8.253293	38.34725
58.5	7.992995	22.01629
59	8.01218	6.64775
59.5	7.924657	-10.38126
60	7.674081	-27.89363
60.5	7.437084	-44.33952
61	7.326426	-61.97526
61.5	6.956985	-78.75245
62	6.831483	-96.16563
62.5	6.376935	-113.401
63	6.11362	-128.3425
63.5	5.737875	-142.944
64	5.619718	-157.4846
64.5	5.359538	-174.6598
65	5.215625	171.3216
65.5	5.117486	153.5733
66	4.946626	136.857
66.5	4.701809	120.1505
67	4.605412	104.7224
67.5	4.224598	89.22675
68	4.137501	76.80832
68.5	3.996181	58.58255
69	3.812418	45.50691
69.5	3.919767	28.43048
70	3.82524	12.56246
70.5	4.018206	-5.837344
71	3.939339	-24.58471
71.5	3.718263	-44.95695
72	3.485646	-59.10025
72.5	3.355491	-79.18656
73	3.130498	-96.74173
73.5	3.064845	-116.5841
74	2.884946	-131.6854
74.5	2.995791	-151.4315
75	2.629352	-173.9309
75.5	2.769767	170.0964
76	2.531708	147.9123
76.5	2.5833	128.2776
77	2.50967	103.4483
77.5	2.445125	81.55174
78	2.413032	60.66403
78.5	2.671914	38.3182
79	2.602865	12.08079
79.5	2.620098	-5.748737
80	2.717381	-33.85156
80.5	2.566855	-50.65577
81	2.943667	-72.67159
81.5	2.856495	-93.65742
82	3.04711	-111.8474
82.5	3.239933	-129.5086
83	3.47646	-148.0743
83.5	3.657192	-165.3387
84	4.103553	175.3898
84.5	4.287755	156.7102
85	4.744231	139.0035
85.5	4.837974	119.3022
86	5.289439	103.1384
86.5	5.487319	84.86144
87	6.009851	69.56827
87.5	6.397191	50.99351
88	6.961039	35.33441
88.5	7.62605	17.00507
89	8.085011	-0.4979632
89.5	8.622259	-18.0903
90	9.390398	-35.2843
90.5	9.919617	-55.14188
91	10.43208	-71.21482
91.5	11.20648	-90.17059
92	11.73439	-106.9267
92.5	12.51146	-125.3248
93	12.89218	-142.3158
93.5	13.72364	-159.0921
94	14.5542	-176.6135
94.5	15.57385	165.1747
95	16.33731	147.3764
95.5	17.46297	129.2857
96	18.27507	111.2511
96.5	19.41052	92.79126
97	20.00148	74.8182
97.5	21.12373	56.95329
98	21.97448	38.6214
98.5	23.24635	20.7674
99	24.3422	2.162505
99.5	25.5603	-15.60308
100	27.03246	-34.09188
100.5	28.59197	-52.55836
101	29.97502	-71.84254
101.5	31.40952	-90.93546
102	32.68557	-110.6186
102.5	34.17147	-129.5228
103	35.76378	-149.5075
103.5	36.99132	-169.032
104	38.66722	171.1973
104.5	39.96628	151.0771
105	41.40697	130.6753
105.5	42.54284	109.9066
106	43.71706	88.80992
106.5	44.29897	67.6678
107	44.96443	46.34317
107.5	44.86681	24.86552
108	44.5752	3.656775
108.5	43.59814	-17.58473
109	42.65761	-38.11441
109.5	41.49975	-59.01852
110	40.15961	-78.93059
110.5	38.96803	-99.11545
111	37.61876	-118.2959
111.5	36.72418	-137.8102
112	35.64325	-157.2435
112.5	34.44178	-176.905
113	33.38368	164.1543
113.5	32.54747	144.1908
114	31.25699	124.705
114.5	30.36345	104.8687
115	28.73099	85.14304
115.5	27.55252	66.06265
116	25.93019	46.58422
116.5	24.50673	27.82589
117	22.84294	9.069738
117.5	21.44854	-9.162948
118	19.87769	-26.95879
118.5	18.68223	-43.77564
119	17.4364	-60.55681
119.5	16.59519	-76.17566
120	15.65209	-92.52483
120.5	15.05577	-106.7786
121	14.56551	-123.5003
121.5	14.13935	-138.1573
122	14.01026	-154.6216
122.5	13.75043	-170.2144
123	13.79954	173.1798
123.5	13.7512	156.0256
124	13.46715	138.9848
124.5	13.27184	123.3005
125	13.29644	105.6344
125.5	12.97833	89.02658
126	13.01766	71.27304
126.5	12.70046	54.68789
127	13.019	36.97889
127.5	12.7493	18.98609
128	12.71906	1.811441
128.5	12.43453	-15.69466
129	12.46664	-32.74936
129.5	12.16215	-51.26611
130	11.92819	-68.53792
130.5	11.69379	-85.70962
131	11.91311	-103.2108
131.5	11.48969	-121.6456
132	11.56176	-138.1371
132.5	11.1525	-156.7302
133	11.00538	-172.0017
133.5	10.88685	169.5013
134	10.63574	152.7036
134.5	10.56266	135.2272
135	10.56293	118.8809
135.5	10.59323	100.8332
136	10.70153	84.54089
136.5	10.75624	65.52523
137	10.58579	48.66853
137.5	10.58299	29.54645
138	10.38211	12.00702
138.5	10.39554	-6.493505
139	10.24285	-24.06265
139.5	10.41228	-42.71543
140	10.12376	-60.65797
140.5	10.23656	-78.05769
141	10.07206	-96.83794
141.5	10.11309	-115.8491
142	9.911261	-134.9427
142.5	10.02976	-154.8432
143	9.682941	-175.457
143.5	9.634782	165.8581
144	9.324579	144.7369
144.5	9.008186	125.8801
145	8.773596	103.7514
145.5	8.15762	83.68482
146	7.777004	62.87675
146.5	7.528171	42.83516
147	7.226583	19.51303
147.5	6.686712	-0.6978855
148	6.443431	-24.48062
148.5	5.806207	-47.57346
149	5.535777	-72.41165
149.5	4.803127	-99.66092
150	4.508066	-124.5726
150.5	4.01684	-154.0793
151	3.787747	179.4253
151.5	3.492248	144.9128
152	3.246552	117.0519
152.5	3.23504	86.09557
153	3.386521	58.22704
153.5	3.72428	27.3824
154	3.838675	2.725767
154.5	4.387516	-24.4828
155	4.348987	-50.56192
155.5	4.900679	-70.52311
156	5.070097	-97.39623
156.5	5.162869	-117.5186
157	5.381703	-139.1856
157.5	5.54361	-159.403
158	5.528603	179.7439
158.5	5.667466	161.9254
159	5.776221	142.1234
159.5	5.839801	125.4654
160	6.041343	104.8632
160.5	5.906358	87.60091
161	6.090874	68.23788
161.5	5.811326	51.04239
162	5.974777	33.44722
162.5	5.781519	16.30104
163	5.948733	0.08610921
163.5	5.743267	-18.36143
164	5.600711	-32.99215
164.5	5.559749	-48.80296
165	5.598733	-65.99581
165.5	5.217282	-82.17925
166	5.389404	-96.01059
166.5	5.109162	-112.0431
167	5.375975	-124.9239
167.5	5.178515	-143.0046
168	5.068089	-154.4222
168.5	5.042468	-169.8797
169	5.073423	176.8636
169.5	5.036005	161.0553
170	5.109161	148.9906
170.5	5.141304	133.2384
171	5.371894	120.2031
171.5	5.31883	104.5682
172	5.508121	93.72395
172.5	5.632509	77.84621
173	5.947175	64.43517
173.5	6.05068	46.68468
174	6.048992	34.96479
174.5	6.540391	19.15435
175	6.853722	3.279083
175.5	7.067732	-13.99658
176	7.161211	-28.60455
176.5	7.321235	-45.49562
177	7.491826	-59.96158
177.5	7.683453	-77.06898
178	7.730774	-91.50128
178.5	8.141842	-108.754
179	8.105215	-125.2421
179.5	8.427338	-140.8757
180	8.525398	-157.7153
180.5	8.719441	-175.2181
181	8.535697	168.1009
181.5	8.628057	152.1457
182	8.463934	135.651
182.5	8.47057	119.4316
183	8.25647	103.8386
183.5	8.447947	88.82739
184	8.301439	71.79749
184.5	8.299751	56.98104
185	8.072369	40.61234
185.5	8.132216	27.37245
186	8.102265	10.33603
186.5	7.798652	-4.352902
187	7.56918	-18.09446
187.5	7.754458	-31.44089
188	7.687481	-46.46933
188.5	7.860685	-59.69444
189	7.780043	-75.829
189.5	7.899234	-87.18827
190	8.164664	-102.7181
190.5	8.201475	-115.5314
191	8.436528	-131.2444
191.5	8.64646	-145.2431
192	8.899479	-161.3017
192.5	8.993764	-175.9425
193	9.193893	168.8663
193.5	9.615594	154.7016
194	9.961872	138.6077
194.5	10.18603	123.6666
195	10.42033	106.1218
195.5	10.44082	91.43381
196	10.89075	74.63078
196.5	10.80456	58.30379
197	11.09957	41.80439
197.5	11.09852	25.56594
198	11.21927	11.00241
198.5	11.43354	-4.632655
199	11.56036	-21.54022
199.5	11.47948	-37.3001
200	11.62974	-53.45107
200.5	11.4746	-69.53957
201	11.76828	-85.78677
201.5	11.57317	-102.2537
202	11.66334	-116.6792
202.5	11.57483	-132.84
203	11.54457	-147.6925
203.5	11.47671	-163.4307
204	11.50261	-177.9631
204.5	11.62049	165.4834
205	11.59233	149.5916
205.5	11.5305	134.0646
206	11.63692	119.6172
206.5	11.57691	104.2077
207	11.83318	89.71525
207.5	11.76106	72.34202
208	11.54283	58.4088
208.5	11.75546	42.50796
209	11.6346	26.96771
209.5	11.76071	11.44903
210	11.80254	-3.530623
210.5	11.79396	-18.79835
211	11.82314	-33.06346
211.5	11.89704	-49.02869
212	11.89713	-63.18898
212.5	12.11013	-79.15722
213	12.05081	-94.83231
213.5	12.16793	-110.7577
214	12.18672	-125.4409
214.5	12.37534	-140.856
215	12.22981	-156.1228
215.5	12.45662	-171.278
216	12.47239	173.1955
216.5	12.46084	157.8895
217	12.46095	142.7365
217.5	12.74311	126.8712
218	12.80862	111.513
218.5	13.01839	95.79588
219	12.91331	79.59815
219.5	13.13283	64.36279
220	13.13176	47.69976
220.5	12.91939	32.29229
221	12.83995	16.6077
221.5	12.88775	1.103489
222	12.78502	-14.24272
222.5	12.87562	-29.33099
223	12.79248	-45.46457
223.5	12.91928	-60.42597
224	12.91236	-76.85613
224.5	12.68384	-91.97922
225	12.57107	-107.8192
225.5	12.41454	-122.4893
226	12.39086	-138.0008
226.5	12.20806	-152.6305
227	12.25766	-167.4832
227.5	12.3853	177.4505
228	12.387	161.7015
228.5	12.29808	146.8952
229	12.14624	131.632
229.5	12.15094	117.6756
230	12.30397	101.6261
230.5	12.02858	87.33888
231	12.30139	72.6712
231.5	12.33728	57.42044
232	12.62524	42.61433
232.5	12.84736	27.10347
233	12.871	11.11332
233.5	12.912	-4.500427
234	12.93249	-20.93078
234.5	12.72112	-35.92313
235	12.76385	-51.5102
235.5	12.65912	-66.95258
236	12.90153	-82.44077
236.5	12.713	-97.90949
237	12.71888	-112.5719
237.5	12.72105	-128.2997
238	12.78545	-143.3837
238.5	12.80937	-159.4367
239	12.51594	-175.2878
239.5	12.51177	169.737
240	12.61545	153.9446
240.5	12.35936	138.705
241	12.32945	124.2569
241.5	12.16484	108.5348
242	12.17362	94.72294
242.5	12.20538	79.50467
243	12.17996	64.72379
243.5	12.32044	48.9557
244	12.3107	33.61813
244.5	12.36557	18.50898
245	12.26936	3.053077
245.5	12.20197	-12.068
246	12.26766	-26.5974
246.5	12.28538	-41.98267
247	12.32619	-56.95469
247.5	12.27621	-72.98483
248	12.29343	-87.31326
248.5	12.53322	-103.1559
249	12.36919	-119.0878
249.5	12.3395	-134.4268
250	12.22102	-149.7899
250.5	12.19715	-164.5058
251	12.27589	-179.2546
251.5	12.28984	164.5836
252	12.18633	149.5539
252.5	12.19558	133.905
253	12.04436	119.1068
253.5	12.04045	103.7531
254	11.93838	88.49532
254.5	11.98487	74.1625
255	12.07004	59.32186
255.5	12.06356	43.64896
256	11.94142	28.8709
256.5	12.12503	14.56756
257	12.26115	-0.8043534
257.5	12.21936	-17.03422
258	12.12751	-32.06821
258.5	12.35148	-46.64531
259	12.50171	-61.86974
259.5	12.65118	-77.56113
260	12.67056	-94.02207
260.5	12.63283	-108.8479
261	12.75434	-124.4725
261.5	12.67159	-141.4224
262	12.53508	-157.0281
262.5	12.63262	-172.653
263	12.45029	171.9047
263.5	12.539	156.6644
264	12.53811	140.3533
264.5	12.38527	125.393
265	12.39195	109.626
265.5	12.21349	93.11166
266	12.05961	77.01594
266.5	11.88803	61.59462
267	11.74747	46.36385
267.5	11.68243	31.02376
268	11.47146	15.61664
268.5	11.34601	1.289088
269	11.12848	-14.03948
269.5	11.01077	-28.12619
270	11.04103	-44.20242
270.5	10.85621	-58.98109
271	10.97755	-74.15972
271.5	10.85744	-89.44163
272	10.90398	-104.3505
272.5	10.77767	-120.3232
273	10.3376	-134.8745
273.5	10.2884	-147.9638
274	10.27661	-163.6547
274.5	10.20894	-177.5941
275	10.46168	167.6301
275.5	10.53708	153.0256
276	10.85271	137.1721
276.5	10.79027	120.7743
277	10.74828	105.6683
277.5	10.59696	90.10297
278	10.42871	74.1947
278.5	10.29421	59.03008
279	10.17254	44.44532
279.5	10.20742	30.69231
280	10.37891	14.8006
280.5	10.43226	0.06201667
281	10.61482	-15.48228
281.5	10.35321	-31.16162
282	10.42482	-46.26048
282.5	10.38879	-62.89003
283	10.19748	-77.7382
283.5	10.166	-93.05238
284	10.10432	-108.7333
284.5	10.12133	-123.3629
285	10.23416	-138.6069
285.5	10.08064	-154.2798
286	10.09173	-169.5981
286.5	9.948638	174.0485
287	9.809812	159.344
287.5	9.701886	143.0463
288	9.539012	127.6285
288.5	9.387704	112.0677
289	9.228526	98.14782
289.5	9.161665	83.3861
290	9.030745	69.27003
290.5	9.059495	54.99059
291	9.092387	39.90048
291.5	8.919403	24.10955
292	8.798532	10.484
292.5	8.952331	-5.177128
293	8.922226	-20.09443
293.5	8.934077	-35.33311
294	8.684747	-49.23709
294.5	8.735584	-62.65037
295	8.885818	-76.42474
295.5	9.02644	-91.36048
296	9.162531	-106.0307
296.5	9.448685	-122.9612
297	9.487072	-138.6419
297.5	9.670473	-154.8131
298	9.539114	-169.8944
298.5	9.745131	174.6088
299	9.748917	158.879
299.5	9.752741	143.3544
300	9.688712	127.4522
300.5	9.847634	111.169
301	9.999578	94.46072
301.5	10.00279	77.54314
302	9.823209	61.66133
302.5	10.01885	45.2167
303	9.758418	28.08308
303.5	9.577808	12.26911
304	9.170231	-5.197225
304.5	8.936258	-20.25498
305	8.822268	-36.94116
305.5	8.418324	-52.28074
306	8.234278	-66.94856
306.5	8.146063	-81.96231
307	7.840787	-96.55405
307.5	7.727262	-110.2805
308	7.519241	-126.3483
308.5	7.388522	-140.4979
309	7.262886	-156.3818
309.5	7.061167	-169.9811
310	6.999132	174.4932
310.5	6.727008	161.9984
311	6.873277	148.5948
311.5	6.761667	135.2873
312	6.923555	121.4218
312.5	6.933934	106.6215
313	7.001968	92.06627
313.5	7.247025	77.4527
314	7.333278	60.03456
314.5	7.23253	46.42742
315	7.467766	29.83644
315.5	7.249522	15.41934
316	7.543969	0.467957
316.5	7.409659	-15.84495
317	7.532511	-30.78362
317.5	7.630462	-46.76518
318	7.746254	-63.30587
318.5	7.608009	-80.04594
319	7.634457	-96.22984
319.5	7.596561	-111.9682
320	7.619329	-129.2773
320.5	7.189641	-146.162
321	7.141123	-161.0525
321.5	6.915853	-176.6868
322	6.892879	168.9147
322.5	6.6245	151.766
323	6.549108	138.8149
323.5	6.651268	122.7673
324	6.564055	106.9061
324.5	6.478983	90.50231
325	6.422897	74.08118
325.5	5.998673	58.12153
326	5.794731	45.57257
326.5	5.636497	29.43135
327	5.433212	17.08891
327.5	5.469498	2.601717
328	5.40783	-10.07096
328.5	5.654354	-25.6646
329	5.651506	-41.34119
329.5	5.574115	-57.37421
330	5.379434	-70.94305
330.5	5.36644	-87.12882
331	5.005217	-100.7892
331.5	5.000414	-113.7119
332	5.065614	-125.7014
332.5	5.377685	-141.2275
333	5.37625	-154.9195
333.5	5.721218	-170.4583
334	5.746202	174.6654
334.5	6.063181	158.2334
335	5.917212	139.7872
335.5	5.786941	122.9115
336	5.668367	108.7006
336.5	5.848298	92.78371
337	5.753734	77.673
337.5	6.091324	61.74055
338	5.946221	45.51532
338.5	6.223872	30.91673
339	6.154803	11.17005
339.5	6.053424	-5.413538
340	6.040725	-22.75607
340.5	6.023571	-40.83252
341	5.751785	-59.74385
341.5	5.613192	-75.35108
342	5.370845	-91.29562
342.5	5.243237	-105.7894
343	4.995028	-123.2894
343.5	4.949474	-137.6479
344	4.809015	-156.9313
344.5	4.482138	-171.8697
345	4.466556	170.021
345.5	4.161267	154.2666
346	4.043602	138.477
346.5	3.555102	122.5812
347	3.219847	111.4027
347.5	3.1476	101.3693
348	3.03753	87.49919
348.5	2.936284	78.17393
349	3.092399	61.13937
349.5	2.969916	49.93259
350	3.21823	34.31742
