Source File Name:	2,4
Signal:	FFT - Vib Velocity - Mag. & Phase

Frequency	Magnitude	Phase
[ Hz ]	[ m/s ]	[ ° ]
10	22.78031	16.3843
10.5	23.26086	-2.421198
11	24.12059	-21.25158
11.5	24.41533	-40.12594
12	25.15527	-58.87977
12.5	26.23457	-81.33643
13	26.06037	-99.56829
13.5	26.23073	-120.8935
14	28.83563	-137.6293
14.5	30.28916	-159.048
15	33.77809	177.795
15.5	36.73005	153.5281
16	39.1007	127.6326
16.5	42.45319	99.79185
17	45.02517	69.03069
17.5	46.27567	37.21863
18	45.66642	2.455354
18.5	41.82947	-44.74717
19	34.64719	-65.19374
19.5	31.244	-92.62132
20	23.88742	-118.3839
20.5	19.72388	-144.3629
21	16.4566	-172.1723
21.5	15.47801	169.23
22	13.15669	148.5355
22.5	12.911	126.9758
23	10.6687	113.3232
23.5	10.01	92.47678
24	10.01924	73.66479
24.5	9.847894	49.89784
25	8.577851	32.79831
25.5	8.786652	14.79935
26	8.577919	-5.351377
26.5	8.324293	-23.49057
27	8.010122	-40.06271
27.5	7.977273	-57.01859
28	7.685008	-75.75685
28.5	7.204916	-92.94389
29	6.960187	-110.5289
29.5	6.679869	-128.1566
30	6.229928	-144.3771
30.5	5.936112	-159.5932
31	5.630646	-173.9996
31.5	4.463817	173.3426
32	4.230275	163.2553
32.5	4.19134	159.1134
33	4.129076	150.9221
33.5	4.610641	144.5781
34	5.367106	132.9485
34.5	6.146036	117.9114
35	7.198115	100.4062
35.5	8.002693	80.10938
36	8.331118	60.17976
36.5	8.447287	42.26334
37	8.590807	23.94203
37.5	8.498161	4.816215
38	8.32531	-12.1948
38.5	8.221975	-30.33425
39	7.997232	-47.23422
39.5	7.788737	-62.66689
40	7.997275	-76.78284
40.5	8.042143	-93.70646
41	7.778787	-109.2341
41.5	7.730711	-123.485
42	7.630865	-139.4597
42.5	7.46664	-155.2972
43	7.397824	-171.1357
43.5	7.350899	173.4131
44	7.219134	157.6947
44.5	7.180438	142.7557
45	7.240676	128.5326
45.5	7.103086	114.2877
46	7.158046	98.68323
46.5	7.076965	83.73275
47	6.853158	68.84814
47.5	6.606804	53.791
48	6.777573	39.87894
48.5	6.693563	24.73191
49	6.498457	2.762385
49.5	6.527581	-4.949115
50	6.71625	-21.02298
50.5	6.546816	-34.07459
51	6.550842	-47.36774
51.5	6.734274	-62.11469
52	6.357482	-77.00996
52.5	6.271487	-90.75211
53	6.383604	-103.7417
53.5	6.313782	-119.279
54	6.429566	-130.8602
54.5	6.420234	-145.5493
55	6.553209	-159.1604
55.5	6.589466	-173.0226
56	6.657055	174.7293
56.5	6.847618	160.6655
57	6.948862	146.5574
57.5	7.147265	132.3763
58	7.321097	117.2384
58.5	7.546248	102.6387
59	7.904018	88.93438
59.5	8.263643	74.55219
60	8.611323	58.76112
60.5	8.80278	44.59803
61	9.126937	28.89699
61.5	9.267478	14.13538
62	9.623093	-1.24344
62.5	10.06441	-16.92644
63	10.47782	-33.38364
63.5	10.91697	-49.31673
64	11.48018	-65.70895
64.5	11.82104	-82.41556
65	12.2041	-98.71165
65.5	12.62804	-115.3423
66	12.88765	-132.9255
66.5	13.20889	-149.7667
67	13.62921	-167.2587
67.5	14.01554	174.658
68	14.4194	157.2966
68.5	14.90335	139.1831
69	15.2183	121.0384
69.5	15.58008	102.2675
70	15.56879	83.58102
70.5	15.47101	65.03236
71	15.68614	46.84259
71.5	15.80153	27.47304
72	15.73958	8.382224
72.5	15.94127	-11.02604
73	15.84507	-30.26552
73.5	15.69788	-49.34045
74	15.60574	-69.66952
74.5	15.17638	-89.93219
75	14.68603	-108.9869
75.5	14.24781	-129.7325
76	13.64715	-149.9468
76.5	13.167	-169.4895
77	12.74333	170.0506
77.5	12.16516	150.7662
78	11.64251	131.0307
78.5	11.04938	112.0352
79	10.70896	92.69627
79.5	10.32797	73.18593
80	10.20149	53.02917
80.5	10.0155	32.3616
81	9.956797	12.68364
81.5	10.08108	-8.208995
82	10.2144	-28.62572
82.5	10.37121	-50.84447
83	10.53899	-72.89039
83.5	10.71791	-95.46265
84	10.78171	-118.3037
84.5	11.19781	-140.021
85	11.63598	-162.3549
85.5	12.12747	175.4846
86	12.67923	152.9538
86.5	13.04788	131.4031
87	13.64898	109.9449
87.5	14.28963	88.02188
88	15.08019	66.32601
88.5	15.80565	43.98301
89	16.50714	22.10783
89.5	17.25078	0.6757751
90	17.91548	-21.06405
90.5	18.51888	-42.80861
91	18.91903	-64.71428
91.5	19.05099	-86.68694
92	19.11993	-108.3281
92.5	19.0428	-129.8235
93	18.7701	-151.0915
93.5	18.31635	-171.8009
94	17.74267	168.361
94.5	17.01623	148.6433
95	16.18966	129.9593
95.5	15.36393	111.8811
96	14.54814	94.22246
96.5	13.94298	77.39188
97	13.21072	60.9504
97.5	12.76374	45.66304
98	12.48606	30.26804
98.5	12.08441	15.39095
99	11.8279	1.222852
99.5	11.73561	-12.93335
100	11.67755	-27.41862
100.5	11.51306	-41.70269
101	11.80436	-55.53884
101.5	12.13759	-71.33565
102	12.30612	-86.57569
102.5	12.62729	-102.2615
103	12.99621	-117.9481
103.5	13.0631	-133.7127
104	13.35209	-149.365
104.5	13.54369	-165.2944
105	13.63761	178.6775
105.5	13.8391	162.493
106	14.01486	146.1772
106.5	14.29003	130.2352
107	14.53657	113.5081
107.5	14.78718	97.45401
108	15.00073	80.86332
108.5	15.14207	64.72357
109	15.24864	48.35161
109.5	15.40609	32.14499
110	15.41192	15.42976
110.5	15.68047	-0.8566512
111	15.86029	-17.93709
111.5	15.83737	-34.70513
112	15.98615	-50.63952
112.5	16.18192	-66.76022
113	16.33698	-83.07566
113.5	16.47922	-99.44865
114	16.5808	-115.7008
114.5	16.75814	-132.5891
115	16.90167	-149.1614
115.5	17.14008	-165.9479
116	17.39089	177.4335
116.5	17.82386	160.3584
117	18.12556	143.2726
117.5	18.37059	126.1405
118	18.62757	108.6964
118.5	18.88593	91.26206
119	19.14051	73.08773
119.5	19.22878	54.79457
120	19.53861	36.83595
120.5	19.74743	17.91274
121	19.81649	-0.9950792
121.5	19.73815	-19.3514
122	19.75736	-38.06336
122.5	19.49708	-57.34317
123	19.17503	-76.15295
123.5	18.80917	-95.3123
124	18.42014	-114.5524
124.5	18.05117	-133.8307
125	17.44746	-153.131
125.5	16.95511	-171.6616
126	16.5101	169.5913
126.5	15.83378	150.4819
127	15.11826	132.0006
127.5	14.55677	113.3528
128	13.78757	94.30096
128.5	13.24795	75.88992
129	12.69432	57.12693
129.5	12.10705	38.79131
130	11.5763	20.82148
130.5	11.07587	3.211641
131	10.5409	-14.48715
131.5	10.07423	-31.76771
132	9.764548	-49.90571
132.5	9.291589	-67.77511
133	9.194005	-86.26722
133.5	8.868223	-105.225
134	8.631285	-122.9348
134.5	8.360534	-141.9754
135	8.1092	-159.0941
135.5	7.830763	-176.9575
136	7.613801	164.8419
136.5	7.479152	146.2268
137	7.263908	127.3326
137.5	7.203138	108.449
138	7.083235	89.0972
138.5	6.981564	71.3102
139	6.851976	52.87983
139.5	6.833288	35.33696
140	6.671838	17.00691
140.5	6.518569	-0.6058391
141	6.547666	-19.34595
141.5	6.415023	-37.50686
142	6.410528	-55.62597
142.5	6.51014	-73.33801
143	6.522688	-90.44008
143.5	6.600679	-108.3408
144	6.606009	-124.7228
144.5	6.690605	-141.8916
145	6.685463	-160.3958
145.5	6.661749	-177.497
146	6.742537	165.1901
146.5	6.886326	147.7355
147	7.021222	129.9109
147.5	7.162787	113.3202
148	7.243973	96.28902
148.5	7.325664	79.22752
149	7.427954	62.71283
149.5	7.358518	45.18212
150	7.359789	28.21138
150.5	7.401018	11.89612
151	7.388625	-4.239338
151.5	7.624324	-20.15569
152	7.855844	-35.65152
152.5	8.067439	-52.26225
153	8.202929	-68.84908
153.5	8.2013	-85.28851
154	8.196024	-100.4383
154.5	8.415892	-116.7227
155	8.506589	-133.611
155.5	8.602023	-149.1301
156	8.921455	-165.5708
156.5	9.093904	177.945
157	9.290551	162.2844
157.5	9.472457	145.6301
158	9.623171	129.5773
158.5	9.6709	112.9409
159	9.618678	96.36454
159.5	9.730155	81.06854
160	9.965274	64.5191
160.5	10.04068	47.75191
161	10.23846	31.93747
161.5	10.448	15.72987
162	10.49481	-0.8056707
162.5	10.53529	-16.72951
163	10.58795	-32.25525
163.5	10.61832	-48.43323
164	10.71055	-65.35718
164.5	10.65313	-81.43701
165	10.63216	-97.36359
165.5	10.82284	-113.5398
166	10.87436	-129.4208
166.5	10.86566	-145.3528
167	10.8892	-160.8461
167.5	10.89348	-176.6642
168	10.7172	167.7701
168.5	10.82513	152.3789
169	10.8345	135.7421
169.5	10.74582	119.8952
170	10.80167	104.1906
170.5	10.88366	88.13622
171	10.79187	72.48346
171.5	10.69402	57.71414
172	10.79154	42.56991
172.5	10.70927	27.02946
173	10.59814	10.99775
173.5	10.44954	-4.21976
174	10.48398	-19.48757
174.5	10.40141	-35.44023
175	10.55428	-50.2702
175.5	10.58637	-66.16011
176	10.41284	-81.75549
176.5	10.30054	-96.04103
177	10.29683	-110.3374
177.5	10.26168	-126.1126
178	10.05035	-142.0896
178.5	9.895459	-156.8374
179	9.727333	-171.78
179.5	9.777592	173.869
180	9.89787	159.3468
180.5	9.908558	144.1987
181	9.786422	129.682
181.5	9.778726	116.0722
182	9.717833	101.4747
182.5	9.60055	86.71292
183	9.579597	72.59378
183.5	9.588858	57.56829
184	9.575046	43.3303
184.5	9.749114	29.1894
185	9.938944	14.94391
185.5	10.01543	0.5659857
186	10.09513	-13.00853
186.5	10.28454	-26.83198
187	10.348	-41.71232
187.5	10.45517	-56.17607
188	10.65044	-70.87469
188.5	10.81819	-86.21968
189	11.15387	-101.8051
189.5	11.26154	-116.7453
190	11.50055	-131.3183
190.5	11.71551	-146.1359
191	11.96702	-160.4955
191.5	12.1353	-176.0351
192	12.26082	168.2793
192.5	12.28428	152.8646
193	12.46272	137.4573
193.5	12.71432	121.4423
194	12.90241	105.6636
194.5	13.05359	90.35744
195	13.10873	75.16625
195.5	13.40586	60.78036
196	13.54778	44.8411
196.5	13.54035	29.17623
197	13.53491	13.31263
197.5	13.60295	-2.274302
198	13.59138	-18.25944
198.5	13.78079	-33.23807
199	14.02493	-48.88166
199.5	14.10055	-64.6283
200	14.19432	-79.48637
200.5	14.26918	-95.02158
201	14.17409	-110.6911
201.5	14.05478	-126.5382
202	13.96618	-141.5177
202.5	14.00266	-157.1908
203	14.09874	-172.6895
203.5	14.18619	172.0605
204	14.31981	157.1416
204.5	14.46842	141.6705
205	14.44067	126.7995
205.5	14.45832	111.5058
206	14.41286	95.60509
206.5	14.30775	80.29798
207	14.27259	64.60262
207.5	14.30755	49.01548
208	14.35849	33.54479
208.5	14.39227	18.73804
209	14.50596	3.465698
209.5	14.4363	-11.47381
210	14.4007	-26.38219
210.5	14.2379	-41.20667
211	14.3505	-56.24356
211.5	14.31391	-71.94581
212	14.33509	-87.384
212.5	14.46117	-102.8462
213	14.57864	-118.106
213.5	14.51261	-133.4564
214	14.57277	-147.9368
214.5	14.64921	-162.8671
215	14.52895	-178.2154
215.5	14.45032	166.4291
216	14.29724	151.5318
216.5	14.43818	136.2088
217	14.43731	120.5094
217.5	14.55972	105.8384
218	14.70737	90.57102
218.5	14.77557	75.31648
219	14.73202	60.66351
219.5	14.71649	45.87344
220	14.71425	30.70863
220.5	14.725	15.24545
221	14.6459	-0.1291369
221.5	14.71744	-15.31132
222	14.93016	-30.76434
222.5	15.00742	-46.20053
223	15.05002	-61.43037
223.5	15.05847	-76.17197
224	15.09945	-91.02632
224.5	15.01182	-106.4243
225	14.89966	-121.6229
225.5	14.92162	-136.3718
226	15.00333	-152.1874
226.5	15.09719	-167.6771
227	15.23189	177.1439
227.5	15.34017	161.8219
228	15.40314	146.4444
228.5	15.32331	131.4804
229	15.23478	116.7347
229.5	15.29898	101.4594
230	15.22916	86.12392
230.5	15.23652	70.57387
231	15.35392	54.85123
231.5	15.38936	39.30856
232	15.44837	24.08453
232.5	15.41856	8.937354
233	15.51589	-5.681699
233.5	15.4961	-20.87095
234	15.42165	-36.08691
234.5	15.3698	-51.35274
235	15.3451	-66.71878
235.5	15.36245	-82.33385
236	15.48262	-97.95338
236.5	15.46926	-113.3033
237	15.50196	-128.3118
237.5	15.63873	-143.2885
238	15.59597	-158.1959
238.5	15.57172	-173.3257
239	15.56608	171.1945
239.5	15.51968	155.694
240	15.46246	139.9299
240.5	15.48148	124.3031
241	15.53515	109.0315
241.5	15.61313	93.68355
242	15.62687	78.48422
242.5	15.65039	63.79082
243	15.63063	48.5628
243.5	15.59059	33.07828
244	15.42818	17.61821
244.5	15.36589	2.414532
245	15.37682	-13.43091
245.5	15.45917	-28.60904
246	15.57763	-44.18408
246.5	15.58309	-59.52904
247	15.60587	-74.43418
247.5	15.54993	-89.61592
248	15.46997	-104.6074
248.5	15.46542	-120.1145
249	15.38773	-135.8576
249.5	15.21346	-151.8507
250	15.27895	-166.9789
250.5	15.32407	177.4214
251	15.34322	162.2964
251.5	15.46801	146.8843
252	15.30424	131.7382
252.5	15.19163	116.97
253	15.1794	101.4427
253.5	15.02448	86.09671
254	14.95255	70.17532
254.5	14.91997	54.55246
255	14.90341	39.0754
255.5	14.95498	23.9699
256	14.99504	8.552823
256.5	14.93445	-6.272191
257	14.87966	-21.26223
257.5	14.72206	-36.84489
258	14.55436	-51.89474
258.5	14.46266	-67.47572
259	14.38593	-82.8937
259.5	14.44444	-98.48581
260	14.47242	-113.6305
260.5	14.53255	-128.9703
261	14.5915	-143.9488
261.5	14.46655	-159.1268
262	14.30469	-174.2798
262.5	14.20298	170.6719
263	14.12324	154.9804
263.5	13.91939	139.3646
264	13.98555	124.2127
264.5	14.11865	108.8902
265	14.12498	93.17628
265.5	14.18313	78.42944
266	14.19922	63.35504
266.5	14.10222	47.99166
267	13.95742	32.51301
267.5	13.82215	17.22502
268	13.69277	1.51337
268.5	13.71305	-14.35781
269	13.67435	-29.85281
269.5	13.70994	-45.11256
270	13.71047	-60.50285
270.5	13.59743	-75.26247
271	13.59803	-89.70058
271.5	13.54825	-105.294
272	13.44749	-120.8967
272.5	13.27932	-136.7824
273	13.17245	-152.4203
273.5	13.22669	-168.007
274	13.20897	176.4278
274.5	13.21941	161.0411
275	13.16805	145.8316
275.5	13.02044	131.2106
276	12.89351	116.2806
276.5	12.85461	101.1502
277	12.77265	85.59245
277.5	12.74848	69.25327
278	12.64096	53.32692
278.5	12.64739	38.1282
279	12.66586	22.32358
279.5	12.57394	7.08107
280	12.54401	-7.364962
280.5	12.38336	-22.87873
281	12.20203	-38.02067
281.5	12.07134	-53.03362
282	12.0028	-68.78363
282.5	12.01439	-84.80409
283	12.0337	-101.0076
283.5	11.84495	-116.5568
284	11.8219	-131.5146
284.5	11.73424	-146.1558
285	11.65347	-160.9982
285.5	11.52725	-176.3777
286	11.3484	168.1197
286.5	11.18023	152.8208
287	11.14048	137.0108
287.5	11.14841	120.841
288	11.01678	105.4291
288.5	11.00003	90.03201
289	10.85393	75.24191
289.5	10.75518	61.03052
290	10.66292	46.03616
290.5	10.55774	30.60535
291	10.31068	15.26983
291.5	10.18855	-0.2613165
292	10.2129	-15.73953
292.5	10.19193	-31.12729
293	10.15309	-46.60345
293.5	10.12615	-61.47589
294	10.0614	-76.18293
294.5	9.85531	-90.89851
295	9.729059	-105.7061
295.5	9.563899	-120.6792
296	9.441909	-135.5775
296.5	9.488982	-151.2525
297	9.497728	-166.6717
297.5	9.526831	178.1692
298	9.547988	162.7639
298.5	9.558416	148.225
299	9.483211	133.229
299.5	9.283531	118.0783
300	9.165438	103.4656
300.5	9.07168	88.13489
301	8.975753	72.66982
301.5	9.04201	57.58213
302	9.128973	42.01123
302.5	9.142548	26.53625
303	9.147035	11.73414
303.5	9.089775	-2.560259
304	9.076184	-17.49023
304.5	9.034471	-33.00434
305	8.878408	-48.33533
305.5	8.790119	-64.04567
306	8.79221	-79.88168
306.5	8.768568	-95.28777
307	8.81218	-110.0342
307.5	8.926913	-125.4542
308	8.890651	-140.3942
308.5	8.784594	-155.2828
309	8.741817	-170.4209
309.5	8.617441	174.022
310	8.484775	158.8229
310.5	8.475819	142.7546
311	8.443996	127.305
311.5	8.518243	112.8104
312	8.659408	96.92339
312.5	8.665931	81.81136
313	8.607308	66.61784
313.5	8.455143	51.80954
314	8.447956	36.57604
314.5	8.319703	20.909
315	8.270357	5.249409
315.5	8.307047	-10.50467
316	8.312025	-25.80677
316.5	8.39325	-41.0654
317	8.536029	-56.32341
317.5	8.53111	-72.23377
318	8.297772	-87.44693
318.5	8.221873	-102.3477
319	8.168521	-117.4586
319.5	8.151109	-133.6419
320	8.11829	-149.7776
320.5	8.154694	-165.5381
321	8.078883	178.5289
321.5	8.106061	164.1236
322	8.225718	149.0994
322.5	8.144457	133.6747
323	8.096762	117.9361
323.5	7.993403	102.1603
324	7.857804	86.85483
324.5	7.874111	70.53358
325	7.854924	54.58094
325.5	7.909374	38.96898
326	7.886546	22.77131
326.5	7.796793	7.727319
327	7.719508	-6.228104
327.5	7.779966	-21.52819
328	7.747905	-37.57238
328.5	7.591495	-53.47634
329	7.506549	-69.56673
329.5	7.474205	-85.40034
330	7.553341	-100.7582
330.5	7.54017	-116.8865
331	7.57952	-132.4169
331.5	7.485762	-147.7552
332	7.383354	-162.8821
332.5	7.259769	-178.089
333	7.232635	166.7738
333.5	7.136095	150.2769
334	7.088564	134.3792
334.5	7.166628	118.5398
335	7.067473	102.303
335.5	7.112751	87.46254
336	7.104086	71.9195
336.5	6.994392	57.44873
337	6.981452	41.88559
337.5	6.913184	25.82847
338	6.708459	10.08941
338.5	6.693958	-5.247045
339	6.721491	-21.43045
339.5	6.70287	-36.65863
340	6.784125	-52.48473
340.5	6.781381	-67.59642
341	6.786128	-82.3968
341.5	6.695728	-98.68262
342	6.576007	-113.7119
342.5	6.519772	-129.0918
343	6.507436	-145.4925
343.5	6.478656	-162.4222
344	6.416752	-177.9268
344.5	6.433789	166.4658
345	6.450985	151.467
345.5	6.477719	136.4203
346	6.375352	120.8954
346.5	6.313141	105.1821
347	6.169992	89.77699
347.5	6.08383	74.64031
348	6.199233	58.53266
348.5	6.307132	41.64587
349	6.211106	25.01891
349.5	6.19241	9.92712
350	6.214443	-5.407852
