Source File Name:	3,3
Signal:	FFT - Vib Velocity - Mag. & Phase

Frequency	Magnitude	Phase
[ Hz ]	[ m/s ]	[ ° ]
10	15.30276	67.00194
10.5	15.68473	47.34881
11	14.26293	26.57115
11.5	11.56576	27.76565
12	15.11507	15.54608
12.5	18.12232	-8.857593
13	17.74497	-28.20675
13.5	16.9966	-47.86312
14	18.84195	-66.7287
14.5	18.19945	-83.56528
15	18.03029	-102.6169
15.5	18.1923	-123.6039
16	17.14891	-145.4687
16.5	16.46956	-163.4283
17	15.95898	176.7854
17.5	14.36108	152.5025
18	13.28755	126.6013
18.5	15.52128	103.2066
19	9.715087	66.25577
19.5	7.401957	24.87589
20	4.895652	-32.5051
20.5	4.942167	-102.9931
21	7.219496	-153.3185
21.5	10.04795	167.661
22	12.31044	135.4111
22.5	18.46876	116.8836
23	18.02252	92.72852
23.5	20.57446	57.55122
24	20.60464	28.07561
24.5	18.22607	4.916324
25	16.27013	-10.96279
25.5	15.04773	-24.5743
26	15.24189	-37.57679
26.5	15.53695	-54.23241
27	15.42503	-67.50703
27.5	15.87747	-81.73503
28	16.51412	-98.15614
28.5	16.58813	-114.025
29	17.36899	-128.4285
29.5	17.76536	-146.0381
30	17.91088	-162.8731
30.5	18.03764	-179.2388
31	18.41524	163.9874
31.5	19.09239	147.4622
32	18.5481	130.9579
32.5	19.0905	115.1285
33	18.97056	96.69171
33.5	18.51779	81.10432
34	18.8237	64.69897
34.5	18.62395	46.98959
35	17.91892	31.52827
35.5	17.96171	16.7443
36	18.17536	0.3376978
36.5	17.65816	-15.42429
37	17.52927	-30.36564
37.5	17.60626	-45.60637
38	17.3001	-61.83046
38.5	17.04021	-74.96455
39	17.50651	-90.79247
39.5	17.23348	-106.546
40	16.97837	-120.4501
40.5	17.6458	-134.5908
41	17.84842	-150.4416
41.5	17.77155	-165.9771
42	18.4928	179.7082
42.5	18.74026	162.4542
43	18.85125	146.2715
43.5	18.77662	131.5965
44	19.66204	114.1001
44.5	19.05713	98.26588
45	19.39162	82.86337
45.5	19.9231	66.20792
46	19.68295	49.06096
46.5	19.77286	33.82771
47	20.2313	18.1066
47.5	20.15896	-0.1682412
48	20.09367	-14.86768
48.5	20.31184	-31.63131
49	20.93775	-50.23243
49.5	19.84837	-64.53835
50	20.54034	-80.40279
50.5	20.62344	-98.30118
51	19.97335	-114.7848
51.5	20.61835	-130.29
52	20.52684	-148.3144
52.5	20.48791	-165.5869
53	19.95697	177.8499
53.5	20.15937	160.1913
54	19.42003	142.4136
54.5	18.92324	126.8811
55	19.29905	111.5103
55.5	19.15864	93.10006
56	18.73436	76.36595
56.5	18.59053	59.94861
57	18.52562	41.61829
57.5	17.82129	25.30541
58	18.02493	8.804623
58.5	17.92562	-8.960068
59	17.73564	-27.80572
59.5	16.99371	-44.61375
60	17.20574	-62.10753
60.5	16.66051	-81.71535
61	15.90732	-98.26521
61.5	16.09252	-116.0658
62	15.73834	-135.8341
62.5	14.87316	-154.4829
63	14.8142	-171.5223
63.5	14.30118	167.6051
64	13.81429	148.6367
64.5	12.96258	129.805
65	13.08725	110.573
65.5	12.3349	88.79606
66	11.67324	69.64944
66.5	11.82261	49.69073
67	11.06435	25.94424
67.5	10.67633	5.981925
68	10.34843	-14.67942
68.5	10.52607	-38.90202
69	9.76425	-61.63407
69.5	9.856942	-83.36526
70	9.987896	-106.0278
70.5	10.08862	-130.4934
71	10.06015	-152.5343
71.5	10.62979	-174.0203
72	11.36911	160.7087
72.5	11.43273	139.1469
73	12.34711	117.9068
73.5	13.40672	95.41068
74	13.88055	71.82623
74.5	14.54837	52.105
75	15.70374	31.09636
75.5	16.85248	9.532927
76	17.37511	-10.74066
76.5	18.72007	-30.31248
77	19.85519	-51.14817
77.5	20.63535	-71.92748
78	21.53012	-90.21208
78.5	23.00867	-110.3405
79	23.85389	-130.424
79.5	24.94452	-149.143
80	26.29843	-169.1415
80.5	27.33085	171.123
81	28.08965	151.4616
81.5	29.33509	132.7644
82	30.44473	112.4254
82.5	31.09118	93.12155
83	31.94136	74.05123
83.5	33.13143	54.66118
84	33.79423	34.63242
84.5	34.37863	15.67914
85	35.46692	-3.940606
85.5	35.98243	-23.99246
86	36.36641	-43.60613
86.5	36.65046	-62.93761
87	37.49213	-82.75379
87.5	37.15975	-103.0562
88	37.49656	-122.0387
88.5	37.62597	-142.4144
89	37.37437	-162.5594
89.5	36.86248	177.8876
90	36.93786	157.9335
90.5	36.39078	137.3957
91	35.51149	117.2824
91.5	34.80766	97.47272
92	34.05332	77.31245
92.5	32.92841	56.64283
93	31.72153	37.44629
93.5	30.88998	16.80258
94	29.36132	-3.498908
94.5	27.95399	-22.80779
95	26.97997	-42.69163
95.5	25.53036	-62.86079
96	24.15817	-82.45502
96.5	22.88838	-101.5468
97	21.867	-121.5812
97.5	20.5684	-140.9663
98	19.4308	-159.9341
98.5	19.03196	-179.0943
99	18.20616	159.7666
99.5	17.2694	140.2373
100	17.1328	119.6245
100.5	16.39021	96.76403
101	15.72204	75.41469
101.5	15.18085	52.76243
102	14.74858	30.3261
102.5	14.09202	6.163819
103	13.47827	-16.11418
103.5	13.34759	-38.97268
104	13.03017	-64.17346
104.5	12.54147	-87.72295
105	12.29665	-110.1923
105.5	12.50023	-134.945
106	11.91216	-158.5907
106.5	12.01559	-179.6846
107	12.00543	156.8089
107.5	12.0482	135.5087
108	11.94726	113.3362
108.5	12.19366	93.9687
109	12.44171	71.62516
109.5	12.37801	51.95267
110	12.52712	32.43628
110.5	13.05936	12.77455
111	12.88949	-7.486022
111.5	13.0655	-25.35191
112	13.4991	-44.25665
112.5	13.40694	-63.2343
113	13.85088	-80.50224
113.5	14.25034	-99.36673
114	14.45036	-118.9025
114.5	14.33059	-136.9208
115	14.63528	-153.9059
115.5	15.03343	-172.9075
116	14.81062	168.6733
116.5	15.09875	152.0895
117	15.45916	133.1909
117.5	15.16269	114.1045
118	15.12221	98.17482
118.5	15.45214	79.78856
119	15.2542	61.31464
119.5	15.08571	44.30599
120	15.07433	27.09364
120.5	15.04925	8.962751
121	14.58865	-8.183251
121.5	14.64777	-23.80342
122	14.84444	-42.64632
122.5	14.18925	-59.92609
123	14.04314	-76.16927
123.5	13.86185	-92.98088
124	13.55442	-110.1606
124.5	13.26365	-124.8796
125	13.45501	-142.7702
125.5	13.04995	-159.1237
126	12.71458	-175.9458
126.5	12.65858	168.8011
127	12.43872	150.5375
127.5	11.70351	135.9215
128	12.06685	121.1485
128.5	11.69722	103.0776
129	11.44482	87.83548
129.5	11.09711	73.32666
130	11.46462	56.46859
130.5	10.88415	40.36598
131	10.87545	24.82097
131.5	10.8829	8.896247
132	10.4891	-8.06873
132.5	10.27544	-22.621
133	10.42304	-37.39301
133.5	10.27115	-56.22757
134	9.901829	-69.99735
134.5	9.923988	-86.97941
135	9.855268	-103.0055
135.5	9.523393	-120.8343
136	9.215528	-136.3442
136.5	9.010474	-152.6702
137	8.511902	-169.0415
137.5	8.31807	177.0063
138	8.301491	160.8853
138.5	7.899985	141.9698
139	7.301329	128.8032
139.5	7.207114	112.4281
140	6.700791	95.85984
140.5	6.017591	82.55406
141	5.926795	70.48598
141.5	5.590952	56.84753
142	5.3087	42.87415
142.5	5.174146	34.25751
143	5.142473	15.87214
143.5	4.456916	7.228122
144	4.671527	0.2371975
144.5	4.869225	-13.5479
145	4.740883	-24.34605
145.5	5.124279	-34.03909
146	5.381477	-49.85673
146.5	5.486264	-61.6553
147	5.751932	-76.24699
147.5	5.981339	-88.85735
148	6.282257	-104.9657
148.5	6.490606	-117.4614
149	7.060686	-134.5387
149.5	7.077734	-150.6373
150	7.369481	-166.0323
150.5	7.701691	178.1959
151	7.812421	160.0063
151.5	7.840264	145.2594
152	8.10625	129.3957
152.5	8.274584	111.5354
153	8.423982	96.26224
153.5	8.388514	78.07994
154	8.783147	62.04167
154.5	8.206694	42.82595
155	8.470251	30.12729
155.5	8.483646	11.96377
156	8.37602	-5.112804
156.5	8.354086	-19.75346
157	8.306546	-37.78967
157.5	8.266642	-54.73278
158	7.802664	-69.81179
158.5	7.962534	-86.18957
159	7.813004	-102.0288
159.5	7.446028	-119.4301
160	7.456787	-133.0358
160.5	7.211262	-149.7382
161	7.081013	-165.7578
161.5	6.861405	-178.4259
162	6.83463	162.7259
162.5	6.527287	151.4848
163	6.422955	134.8669
163.5	6.595376	121.5537
164	6.234002	104.2785
164.5	6.068132	91.54408
165	6.18152	78.9634
165.5	6.151044	62.67326
166	6.160371	49.70292
166.5	6.330344	34.69949
167	6.330239	16.98266
167.5	6.098102	4.654138
168	6.245062	-11.62783
168.5	6.323095	-24.66043
169	6.23879	-42.77018
169.5	6.154679	-54.67582
170	6.471251	-70.55389
170.5	6.156997	-86.99494
171	6.380935	-99.00217
171.5	6.526124	-115.9988
172	6.627364	-132.3571
172.5	6.299271	-148.4133
173	6.652898	-160.8115
173.5	6.568624	-178.7114
174	6.764436	166.0873
174.5	6.527087	150.613
175	6.978063	133.8987
175.5	6.392444	116.5593
176	6.580088	104.0907
176.5	6.733416	87.35858
177	6.499502	70.67664
177.5	6.676421	56.68256
178	6.611208	40.68312
178.5	6.596992	23.72906
179	6.54779	10.92738
179.5	6.699756	-5.248461
180	6.92612	-22.33161
180.5	6.576987	-38.67197
181	6.759883	-52.83789
181.5	6.897083	-69.6994
182	6.591783	-86.98176
182.5	6.898766	-98.62797
183	6.901845	-118.6549
183.5	6.970975	-133.5629
184	6.810431	-150.0308
184.5	6.9374	-166.171
185	6.967143	177.2103
185.5	6.744147	160.9864
186	7.071765	146.6401
186.5	7.120757	126.8329
187	6.878133	110.1533
187.5	6.820411	95.94426
188	6.99877	77.09239
188.5	6.750876	61.88727
189	6.875672	45.24662
189.5	6.952154	27.75099
190	6.892554	10.59397
190.5	6.663824	-7.714139
191	6.770725	-21.9103
191.5	6.652345	-42.29112
192	6.512002	-57.13939
192.5	6.401147	-74.67145
193	6.564795	-93.13818
193.5	5.851251	-110.166
194	6.23325	-124.1347
194.5	5.982244	-143.6566
195	5.923924	-158.7341
195.5	5.92993	-176.7475
196	5.959661	166.0892
196.5	5.758851	145.3279
197	5.37842	130.2741
197.5	5.551779	113.8064
198	5.384635	94.07095
198.5	5.173077	77.08331
199	5.18166	60.64351
199.5	5.096128	40.26011
200	4.78873	23.86544
200.5	4.85065	7.253247
201	4.759011	-12.80833
201.5	4.637799	-30.39066
202	4.403167	-49.7944
202.5	4.48446	-63.92633
203	4.408292	-88.1592
203.5	4.261666	-101.9208
204	4.35101	-123.6262
204.5	4.267233	-144.4606
205	3.978447	-162.471
205.5	4.099787	179.1543
206	4.192625	159.1315
206.5	4.073436	134.3861
207	3.886895	117.3995
207.5	3.906549	95.59685
208	3.884642	77.15836
208.5	3.770057	56.893
209	4.055869	39.56611
209.5	4.20756	15.15434
210	4.020531	-5.078176
210.5	4.30943	-23.52165
211	4.390558	-45.12901
211.5	4.59325	-68.30017
212	4.315342	-85.69151
212.5	4.849195	-105.5807
213	4.812829	-125.8837
213.5	5.076966	-146.2977
214	5.278515	-164.1428
214.5	5.613291	172.3932
215	5.482398	153.7484
215.5	5.869354	135.9046
216	5.976316	114.4685
216.5	6.160787	97.38316
217	6.396564	78.67432
217.5	6.821287	59.50225
218	6.926701	39.14355
218.5	7.000724	22.25922
219	7.609778	3.642231
219.5	7.626924	-16.56528
220	7.849053	-34.1734
220.5	8.088978	-51.08007
221	8.621124	-71.00187
221.5	8.61551	-88.82888
222	9.054729	-107.4594
222.5	9.186881	-126.2963
223	9.389869	-144.1442
223.5	9.460644	-161.8832
224	10.05854	-178.603
224.5	10.25787	160.9801
225	10.27616	143.7094
225.5	10.66893	126.7582
226	10.94562	107.0044
226.5	10.96208	90.29059
227	11.32271	72.49352
227.5	11.71749	54.34592
228	11.67654	35.36485
228.5	12.0183	18.88731
229	12.12844	0.2200933
229.5	12.36658	-17.34129
230	12.35879	-34.66804
230.5	12.96925	-51.47125
231	13.12272	-71.76409
231.5	13.02106	-87.94351
232	13.4371	-106.4402
232.5	13.43775	-124.3119
233	13.48193	-142.0134
233.5	13.66184	-158.47
234	14.02408	-176.812
234.5	14.09738	165.3799
235	14.23824	147.6642
235.5	14.39669	130.0382
236	14.60391	111.6913
236.5	14.38193	94.47618
237	14.89113	77.34021
237.5	14.89682	58.41709
238	14.86442	41.54102
238.5	15.08123	23.37963
239	15.11894	6.253402
239.5	15.19414	-12.02339
240	15.43995	-28.52124
240.5	15.66288	-47.92983
241	15.62525	-65.80578
241.5	15.2949	-83.87871
242	15.63648	-100.6929
242.5	15.36747	-119.1089
243	15.48926	-135.8383
243.5	15.75748	-153.7741
244	15.63223	-172.2338
244.5	15.71396	169.9442
245	15.58777	152.224
245.5	15.62669	134.0686
246	15.42855	116.5177
246.5	15.44237	99.42264
247	15.73552	81.30379
247.5	15.43265	63.00422
248	15.58592	45.21323
248.5	15.41076	27.49454
249	15.32717	8.647602
249.5	15.20967	-7.450117
250	15.34949	-26.50854
250.5	15.24247	-43.89456
251	15.21315	-62.36707
251.5	15.13171	-80.17739
252	15.08418	-98.62148
252.5	14.74225	-116.821
253	14.85326	-133.4428
253.5	14.80683	-152.8251
254	14.68284	-170.5503
254.5	14.51198	171.4788
255	14.54548	153.067
255.5	14.35061	134.9254
256	14.22892	117.0874
256.5	14.35232	98.64981
257	14.17632	80.17058
257.5	14.1236	60.55185
258	13.59037	43.5911
258.5	13.90371	24.57342
259	13.3336	6.6677
259.5	13.5101	-11.07037
260	13.47311	-29.69354
260.5	13.36484	-48.79895
261	13.17898	-66.81768
261.5	13.27397	-85.64512
262	13.09191	-104.5145
262.5	12.88258	-123.7439
263	12.747	-140.923
263.5	12.92395	-160.0532
264	12.70783	-179.7897
264.5	12.56465	162.7519
265	12.71967	142.8772
265.5	12.41305	124.0569
266	12.48497	105.8985
266.5	12.52361	86.04396
267	12.36908	67.14603
267.5	12.23249	47.18285
268	12.07268	30.23864
268.5	12.2345	10.30958
269	12.32392	-8.84131
269.5	11.87017	-27.89319
270	12.38009	-46.38028
270.5	11.99559	-66.62264
271	12.0204	-85.07288
271.5	12.01713	-103.4681
272	11.97062	-123.1034
272.5	12.0412	-141.1342
273	11.88547	-159.6235
273.5	12.52172	-178.2821
274	12.23689	161.3492
274.5	12.34662	142.9991
275	12.55509	124.6636
275.5	12.59739	103.886
276	12.34587	85.81327
276.5	12.59253	68.47366
277	12.74599	48.01764
277.5	12.7362	31.28304
278	12.98221	10.89566
278.5	13.19437	-6.107678
279	13.17511	-27.56289
279.5	13.11964	-43.61508
280	13.38631	-62.84315
280.5	13.55966	-81.78325
281	13.37072	-99.77144
281.5	13.68374	-117.3935
282	13.97964	-136.0824
282.5	14.02638	-154.7443
283	14.30412	-173.0953
283.5	14.3087	167.7025
284	14.25884	149.5577
284.5	14.1564	132.1867
285	14.53592	114.9822
285.5	14.7687	96.30255
286	14.89384	78.38158
286.5	15.18494	59.87775
287	15.18942	41.19028
287.5	15.16772	23.1856
288	15.18105	5.898543
288.5	15.44577	-12.42418
289	15.29631	-29.72507
289.5	15.58441	-47.48652
290	15.81414	-64.8099
290.5	15.84359	-84.04234
291	15.9013	-100.7002
291.5	16.07703	-118.8619
292	16.20005	-137.3691
292.5	15.96315	-154.3714
293	16.26991	-172.1419
293.5	16.24192	170.4529
294	16.2928	152.3103
294.5	16.40835	135.8689
295	16.6873	116.9941
295.5	16.43362	99.21863
296	16.54357	82.38892
296.5	16.58083	64.29494
297	16.60015	46.67727
297.5	16.34837	29.83529
298	16.85114	12.0994
298.5	16.40275	-5.556184
299	16.75142	-22.69986
299.5	16.59696	-40.08396
300	16.79735	-58.5576
300.5	16.40609	-75.71384
301	16.34848	-92.48714
301.5	16.53329	-110.275
302	16.11861	-127.2241
302.5	16.34832	-144.1498
303	16.34779	-161.6689
303.5	16.11989	-179.7012
304	16.01363	164.4821
304.5	16.23618	146.6972
305	16.11734	128.991
305.5	15.93015	111.457
306	15.69135	94.9017
306.5	15.94518	77.32665
307	15.28706	59.73212
307.5	15.5241	44.0855
308	15.44198	26.07948
308.5	15.22112	8.801715
309	15.10022	-7.438303
309.5	15.18896	-25.00831
310	14.95406	-42.42285
310.5	14.66776	-59.60269
311	14.63618	-75.65491
311.5	14.53292	-93.58182
312	14.25604	-110.5743
312.5	14.01405	-126.4296
313	14.26151	-144.0136
313.5	13.72559	-161.3006
314	13.89148	-177.4859
314.5	13.63666	164.5416
315	13.41066	147.258
315.5	12.99167	130.7655
316	12.92536	114.7337
316.5	12.7533	97.16819
317	12.5093	81.07705
317.5	12.34513	64.70616
318	12.49201	47.22809
318.5	11.72887	29.73583
319	11.9063	15.50601
319.5	11.64963	-3.020561
320	11.4115	-18.74638
320.5	11.24998	-34.48676
321	11.3145	-51.6422
321.5	11.15699	-68.98717
322	10.6382	-85.34427
322.5	10.84484	-101.5607
323	10.31191	-118.686
323.5	10.25531	-134.2481
324	10.14905	-149.8759
324.5	10.23079	-168.3317
325	9.681833	175.6127
325.5	9.746246	159.4724
326	9.380384	141.8644
326.5	9.25482	127.0867
327	8.983116	110.0369
327.5	9.044758	94.60193
328	8.702462	77.67178
328.5	8.674302	61.63141
329	8.578756	45.65069
329.5	8.353764	27.60466
330	8.083345	12.73632
330.5	8.02065	-3.688421
331	7.888182	-19.699
331.5	7.699986	-35.66419
332	7.749865	-52.02687
332.5	7.534986	-69.51024
333	7.283015	-85.52721
333.5	7.024683	-101.4271
334	7.156334	-116.2982
334.5	6.726714	-135.413
335	6.709368	-148.2135
335.5	6.586458	-165.9019
336	6.436822	178.222
336.5	6.298817	163.5719
337	6.391371	146.4246
337.5	6.214549	129.2694
338	5.989145	112.4525
338.5	5.842433	97.03321
339	5.715984	81.38722
339.5	5.576674	63.9876
340	5.491177	50.7739
340.5	5.516135	31.70576
341	5.175214	16.3308
341.5	5.277349	1.378498
342	5.041332	-17.14484
342.5	5.051439	-31.39753
343	4.809125	-49.6062
343.5	4.911458	-64.55222
344	4.581177	-83.17231
344.5	4.63058	-99.08028
345	4.264022	-114.7745
345.5	4.454227	-132.3631
346	3.971299	-149.2465
346.5	4.20603	-163.5472
347	3.936881	174.0784
347.5	3.67391	161.1468
348	3.586992	143.0732
348.5	3.485607	127.0349
349	3.338748	109.7436
349.5	3.126053	92.31253
350	3.147074	77.74402
