Source File Name:	9,3
Signal:	FFT - Vib Velocity - Mag. & Phase

Frequency	Magnitude	Phase
[ Hz ]	[ m/s ]	[ ° ]
10	18.39704	46.14841
10.5	18.70797	29.55262
11	18.9417	13.38306
11.5	18.7235	-1.694057
12	19.52567	-21.66224
12.5	18.87786	-35.54956
13	19.76371	-50.05403
13.5	19.88444	-65.33457
14	20.28869	-87.2416
14.5	20.49417	-104.8422
15	20.60757	-121.496
15.5	21.13495	-140.6644
16	20.85592	-157.8494
16.5	20.57316	-176.2202
17	21.27061	162.8439
17.5	21.06173	143.9512
18	21.18129	124.6296
18.5	23.15072	104.4072
19	22.09895	81.62091
19.5	21.5358	60.87854
20	20.95133	34.59545
20.5	20.66758	7.77681
21	19.73728	-22.84024
21.5	18.16696	-55.8424
22	14.5508	-89.60106
22.5	13.44877	-132.5419
23	7.567755	-168.8748
23.5	8.183616	145.0195
24	7.024267	102.6027
24.5	5.946619	53.70165
25	7.049896	26.23256
25.5	6.953658	0.3550455
26	7.423046	-18.70485
26.5	7.600736	-43.61041
27	8.379508	-64.87772
27.5	8.249194	-84.37609
28	8.547956	-104.8079
28.5	8.860061	-122.8904
29	8.861394	-140.11
29.5	9.079323	-157.9327
30	9.479658	-176.6077
30.5	9.499316	165.7568
31	9.889177	148.4661
31.5	9.710362	133.1825
32	9.594395	115.8201
32.5	9.692016	99.32554
33	9.839499	83.04144
33.5	9.822804	66.05176
34	9.789378	50.14318
34.5	9.827667	33.95695
35	9.83683	17.25144
35.5	9.800103	1.473398
36	9.726849	-14.73324
36.5	9.740112	-31.44934
37	9.527286	-47.67344
37.5	9.628045	-62.10096
38	9.560504	-79.36868
38.5	9.341202	-95.3522
39	9.435739	-110.3638
39.5	9.326378	-127.2899
40	9.418158	-142.6358
40.5	9.204421	-160.2453
41	8.924741	-174.9438
41.5	8.957199	169.2721
42	8.834039	153.3922
42.5	8.673928	137.4966
43	8.683816	123.0501
43.5	8.590124	106.6869
44	8.527113	90.93712
44.5	8.379586	76.12197
45	8.459362	59.71011
45.5	8.290558	44.19061
46	8.280356	28.52257
46.5	8.13758	14.04267
47	8.200727	-1.53401
47.5	8.226189	-17.63234
48	8.035064	-33.50227
48.5	8.044667	-49.6135
49	7.342114	-68.06129
49.5	7.979828	-80.00431
50	8.00316	-97.38809
50.5	7.851948	-114.9991
51	7.661453	-130.4651
51.5	7.584607	-146.4452
52	7.556717	-162.2355
52.5	7.469442	-179.1188
53	7.366612	164.8863
53.5	7.374899	149.0539
54	7.065255	133.1487
54.5	7.291844	116.989
55	7.001882	99.27924
55.5	6.90927	83.86873
56	6.878192	67.01843
56.5	6.750285	50.20643
57	6.44822	32.97256
57.5	6.403532	17.93659
58	6.272145	0.6401824
58.5	6.249366	-15.77086
59	6.189303	-32.63659
59.5	5.961144	-50.84362
60	5.843103	-65.23138
60.5	5.820268	-82.77602
61	5.769873	-100.684
61.5	5.577724	-116.8124
62	5.521016	-133.6615
62.5	5.481182	-150.4852
63	5.435125	-168.7943
63.5	5.283067	174.2025
64	5.362399	156.7219
64.5	5.132842	136.5735
65	4.990473	120.9492
65.5	5.007134	102.6628
66	4.85206	84.58199
66.5	4.906716	68.22723
67	4.943761	48.39538
67.5	4.907809	30.47553
68	4.927384	10.83309
68.5	4.782815	-7.364889
69	4.939062	-25.6248
69.5	4.850748	-45.04044
70	4.964561	-62.14103
70.5	5.027057	-82.49731
71	4.930976	-101.5968
71.5	5.152432	-116.7337
72	5.369157	-137.6113
72.5	5.399695	-155.9242
73	5.635351	-174.3667
73.5	5.858973	167.4422
74	6.104272	147.7693
74.5	6.203902	130.1211
75	6.368798	110.2644
75.5	6.657086	94.32343
76	7.043102	75.57713
76.5	7.334326	56.72816
77	7.579587	38.98568
77.5	7.933748	21.30548
78	8.218471	3.359302
78.5	8.645944	-13.68623
79	9.084013	-31.94837
79.5	9.550785	-48.85542
80	10.0786	-67.52637
80.5	10.40277	-85.33169
81	10.99174	-102.3459
81.5	11.43574	-120.5867
82	11.92411	-137.6967
82.5	12.61643	-154.8853
83	13.15467	-173.002
83.5	13.70033	169.8936
84	14.38787	152.3847
84.5	15.00896	135.3116
85	15.82173	117.7656
85.5	16.56519	100.1635
86	17.38865	82.70438
86.5	18.13763	64.66309
87	18.7659	47.40883
87.5	19.78303	29.85085
88	20.54652	12.14178
88.5	21.34639	-5.174197
89	22.55747	-22.4388
89.5	23.67463	-40.66648
90	24.74768	-58.59577
90.5	25.85502	-76.85992
91	26.97607	-95.04037
91.5	28.04399	-113.3666
92	29.18993	-131.6675
92.5	30.37429	-150.1443
93	31.64266	-168.6308
93.5	32.79573	172.502
94	34.02823	153.4927
94.5	35.02483	134.3029
95	36.09516	115.2322
95.5	37.07825	95.89247
96	37.94625	76.27779
96.5	38.63964	56.85314
97	39.33202	36.97754
97.5	39.80513	17.1946
98	40.10317	-3.009522
98.5	40.09415	-22.94112
99	39.94111	-43.18894
99.5	39.5722	-63.36071
100	38.86129	-83.80961
100.5	37.75973	-103.8542
101	36.57012	-123.7565
101.5	35.22624	-143.5206
102	33.74718	-163.3605
102.5	31.98233	177.1341
103	30.1169	158.0759
103.5	28.34672	139.2398
104	26.40364	120.5467
104.5	24.39403	102.3676
105	22.48189	84.76242
105.5	20.49986	67.82351
106	18.82743	51.84875
106.5	17.12248	36.13572
107	15.78447	22.02697
107.5	14.61648	7.583018
108	13.73089	-5.502413
108.5	12.86718	-19.37497
109	12.16336	-31.47147
109.5	11.72786	-43.96891
110	11.4713	-56.55522
110.5	11.18101	-68.97302
111	11.15815	-81.57669
111.5	11.04857	-94.6589
112	11.09364	-107.1254
112.5	11.26452	-120.3397
113	11.50219	-133.431
113.5	11.89573	-147.8437
114	12.13179	-162.2763
114.5	12.43295	-177.0259
115	12.74947	168.0864
115.5	13.1362	153.0648
116	13.57491	137.6595
116.5	13.87152	121.2698
117	14.2214	105.9687
117.5	14.61559	89.26857
118	14.84276	73.09023
118.5	15.24753	56.16124
119	15.33129	39.31408
119.5	15.4732	22.68409
120	15.6586	5.938184
120.5	15.65913	-11.14527
121	15.77384	-27.57741
121.5	15.74002	-44.29488
122	15.84388	-61.14782
122.5	15.84138	-78.07297
123	15.68408	-94.78806
123.5	15.66178	-111.0409
124	15.6516	-127.5891
124.5	15.5244	-144.0021
125	15.48385	-160.3508
125.5	15.3863	-176.2067
126	15.49214	167.8565
126.5	15.63863	151.6178
127	15.60397	135.4077
127.5	15.86718	119.147
128	15.9106	102.5466
128.5	16.0824	86.41504
129	16.38083	69.90137
129.5	16.56246	52.97988
130	16.79095	36.3308
130.5	17.13849	19.20167
131	17.38662	2.067828
131.5	17.67771	-15.72429
132	17.78461	-32.7779
132.5	18.14344	-50.45692
133	18.28297	-68.11385
133.5	18.53922	-85.7234
134	18.91736	-103.5786
134.5	19.03576	-122.1632
135	19.15977	-140.0534
135.5	19.33795	-158.326
136	19.50496	-176.6699
136.5	19.61069	164.8317
137	19.72923	146.3829
137.5	19.834	127.5907
138	19.86905	108.7288
138.5	19.75864	89.87997
139	19.80124	71.32848
139.5	19.7435	52.12685
140	19.59917	33.33378
140.5	19.5079	14.49858
141	19.37581	-4.745446
141.5	19.14334	-23.62591
142	19.05994	-42.63133
142.5	18.7788	-62.08213
143	18.51227	-81.24381
143.5	18.19843	-100.6867
144	17.70419	-119.9724
144.5	17.26614	-138.7433
145	16.85227	-157.6604
145.5	16.46977	-176.3113
146	15.96265	164.6814
146.5	15.53655	146.4235
147	15.15668	127.882
147.5	14.72781	109.2729
148	14.25798	91.0295
148.5	13.87383	72.84724
149	13.33398	54.53634
149.5	12.92554	37.35076
150	12.58145	19.65207
150.5	12.3383	2.393707
151	12.01905	-15.33886
151.5	11.88526	-32.93913
152	11.56184	-51.23046
152.5	11.14727	-68.52297
153	10.955	-85.23365
153.5	10.82469	-102.7646
154	10.58062	-120.2506
154.5	10.37165	-137.4045
155	10.27731	-154.985
155.5	9.988977	-172.7154
156	9.761117	170.7594
156.5	9.663844	153.4997
157	9.473802	135.957
157.5	9.339144	119.0227
158	9.150692	100.8377
158.5	8.914182	83.87006
159	8.737436	66.17748
159.5	8.407689	48.80808
160	8.169683	31.94719
160.5	7.895747	15.22848
161	7.694997	-1.399847
161.5	7.512584	-18.23431
162	7.151218	-35.22973
162.5	7.031679	-51.08053
163	6.668243	-68.25822
163.5	6.431408	-83.48854
164	6.186141	-99.12838
164.5	6.032834	-114.6951
165	5.824268	-131.1279
165.5	5.46876	-146.6167
166	5.193209	-160.4318
166.5	5.0605	-174.6491
167	4.875821	172.217
167.5	4.859358	158.5164
168	4.874767	143.8113
168.5	4.720019	128.5375
169	4.59637	114.386
169.5	4.446679	101.9667
170	4.537617	88.33506
170.5	4.513981	73.9961
171	4.482516	60.40702
171.5	4.517938	47.17559
172	4.550231	31.71824
172.5	4.492525	19.04319
173	4.637547	4.486542
173.5	4.637987	-9.529404
174	4.643089	-23.82873
174.5	4.740108	-37.69774
175	4.794122	-52.16709
175.5	4.920556	-66.47337
176	4.981985	-81.8916
176.5	5.067618	-96.83038
177	4.944883	-111.492
177.5	5.089739	-124.0821
178	5.280116	-139.0853
178.5	5.376665	-154.6459
179	5.457878	-168.5074
179.5	5.603351	176.1094
180	5.66608	161.082
180.5	5.801925	146.6684
181	5.996521	131.7654
181.5	6.136629	114.8802
182	6.105783	100.4493
182.5	6.228128	85.23115
183	6.252673	70.24899
183.5	6.517838	56.31836
184	6.674252	39.73926
184.5	6.820252	24.92024
185	6.973415	8.293223
185.5	6.974111	-7.203929
186	7.155078	-22.39379
186.5	7.2317	-38.01951
187	7.443763	-53.58957
187.5	7.587394	-70.00558
188	7.523941	-85.64426
188.5	7.809428	-101.1634
189	7.758976	-117.9217
189.5	7.830545	-132.591
190	8.002701	-148.6334
190.5	8.076884	-164.4356
191	8.190912	179.1885
191.5	8.222888	163.4467
192	8.366415	147.331
192.5	8.336032	131.0488
193	8.42954	115.4194
193.5	8.471535	98.99646
194	8.522296	82.95361
194.5	8.552216	67.05067
195	8.593085	49.99393
195.5	8.452909	33.98951
196	8.441501	18.5484
196.5	8.482187	2.504779
197	8.502557	-13.74054
197.5	8.39636	-30.25872
198	8.363824	-46.65596
198.5	8.149009	-62.56791
199	8.118399	-78.59441
199.5	7.955014	-94.41887
200	7.789854	-110.2209
200.5	7.678561	-125.7614
201	7.566821	-141.4707
201.5	7.363995	-157.7535
202	7.135757	-172.5813
202.5	6.982112	172.7697
203	6.857302	156.9054
203.5	6.617396	142.435
204	6.461005	127.6491
204.5	6.304976	113.0191
205	6.085324	98.46348
205.5	5.841107	84.95205
206	5.708661	71.98798
206.5	5.651706	58.63381
207	5.504874	45.39288
207.5	5.511497	32.70136
208	5.390072	19.42168
208.5	5.423779	6.749423
209	5.358651	-6.357991
209.5	5.35743	-17.99737
210	5.494934	-30.36313
210.5	5.650631	-43.42845
211	5.71117	-56.42335
211.5	5.938762	-69.1811
212	6.144673	-82.85474
212.5	6.338142	-96.21698
213	6.658423	-110.1386
213.5	6.868442	-124.7256
214	7.182042	-138.5064
214.5	7.539503	-154.1904
215	7.645189	-169.4539
215.5	7.961427	176.3138
216	8.232633	161.0436
216.5	8.550381	145.7874
217	8.801825	129.6908
217.5	9.014441	114.7746
218	9.329993	98.77165
218.5	9.485157	82.92196
219	9.735759	67.64611
219.5	10.02624	51.4335
220	10.10588	35.66248
220.5	10.3791	20.06899
221	10.55566	4.03335
221.5	10.73854	-11.80915
222	10.85344	-27.67921
222.5	11.03153	-43.15658
223	11.24928	-58.72371
223.5	11.52873	-75.14347
224	11.55792	-91.21117
224.5	11.77468	-107.0106
225	11.83567	-123.0214
225.5	12.02431	-138.95
226	12.03902	-154.7481
226.5	12.25046	-170.4258
227	12.38698	173.5563
227.5	12.49031	157.3424
228	12.57348	141.6952
228.5	12.68296	125.3285
229	12.72264	109.961
229.5	12.93935	93.77238
230	12.99191	77.75261
230.5	13.0892	61.31856
231	13.08806	45.46796
231.5	13.167	29.34816
232	13.16935	12.87211
232.5	12.99986	-2.653418
233	13.1762	-18.04605
233.5	13.19477	-34.57928
234	13.14024	-50.25761
234.5	13.19326	-66.19193
235	13.18149	-82.32533
235.5	13.07102	-98.08916
236	13.07836	-113.9267
236.5	13.06281	-129.5454
237	13.02917	-145.7311
237.5	12.94529	-161.3927
238	12.88194	-176.9077
238.5	12.90202	166.9839
239	12.72669	151.5919
239.5	12.79003	135.9974
240	12.7063	120.0909
240.5	12.69034	104.3472
241	12.53354	88.53932
241.5	12.46133	72.97611
242	12.39937	57.65131
242.5	12.34653	41.34761
243	12.0777	26.40351
243.5	12.09044	11.10002
244	12.04625	-4.314444
244.5	11.96689	-20.15116
245	11.82512	-35.31782
245.5	11.78944	-50.71614
246	11.74566	-66.13452
246.5	11.56476	-81.86365
247	11.53395	-96.6423
247.5	11.47454	-112.3582
248	11.34858	-127.7941
248.5	11.21536	-142.8772
249	11.09081	-158.0101
249.5	11.07105	-172.47
250	11.08251	171.8061
250.5	10.95247	156.8874
251	10.99116	141.5819
251.5	10.82305	126.0624
252	10.70512	111.1744
252.5	10.65345	96.61289
253	10.66217	81.84225
253.5	10.70185	66.46071
254	10.64239	51.19473
254.5	10.58411	35.94043
255	10.51167	20.85626
255.5	10.4074	6.044721
256	10.45264	-8.404113
256.5	10.47306	-23.63949
257	10.51886	-38.35727
257.5	10.62683	-54.42712
258	10.47469	-70.09515
258.5	10.27361	-84.69567
259	10.37704	-99.07045
259.5	10.3898	-114.2893
260	10.44161	-129.457
260.5	10.45578	-144.8994
261	10.4357	-160.2058
261.5	10.39597	-175.7603
262	10.30972	169.6701
262.5	10.41538	154.1392
263	10.2789	138.9721
263.5	10.37401	124.2201
264	10.39962	108.5259
264.5	10.35897	92.84892
265	10.24583	77.68408
265.5	10.27011	62.30522
266	10.11551	47.05394
266.5	10.04533	32.19243
267	9.988214	17.93303
267.5	10.16695	2.779209
268	10.13143	-12.95689
268.5	10.08337	-28.20927
269	10.07161	-43.53392
269.5	9.990561	-58.96897
270	9.876126	-74.06806
270.5	9.807526	-88.77648
271	9.840236	-103.3708
271.5	9.892638	-118.7687
272	9.778454	-133.9858
272.5	9.823641	-148.283
273	9.936969	-164.3168
273.5	9.757415	-179.701
274	9.708091	165.6096
274.5	9.766809	151.0604
275	9.768557	135.0227
275.5	9.619397	120.2426
276	9.611306	105.7078
276.5	9.664005	90.95299
277	9.681223	75.66663
277.5	9.69848	60.8937
278	9.731095	45.2887
278.5	9.678843	30.34226
279	9.700076	15.07775
279.5	9.669292	-0.004752144
280	9.602264	-14.70563
280.5	9.773526	-29.40747
281	9.790254	-45.63049
281.5	9.654249	-60.61589
282	9.676097	-75.22368
282.5	9.745693	-90.72395
283	9.643064	-105.4613
283.5	9.797643	-120.3171
284	9.797961	-135.8479
284.5	9.856884	-151.1806
285	9.805295	-166.5528
285.5	9.849583	178.5074
286	9.858038	162.6976
286.5	9.767098	147.788
287	9.854586	132.947
287.5	9.842666	116.9215
288	9.790533	102.5203
288.5	9.928726	86.94984
289	9.890942	71.37067
289.5	9.90544	56.00326
290	9.828153	40.4799
290.5	9.841796	25.56908
291	9.803938	9.894876
291.5	9.764794	-4.831769
292	9.817343	-20.07509
292.5	9.792254	-35.47252
293	9.816193	-50.58764
293.5	9.799498	-66.10541
294	9.719625	-81.12406
294.5	9.78783	-96.16218
295	9.749326	-111.4202
295.5	9.774664	-126.3622
296	9.888697	-141.3047
296.5	9.966441	-157.5026
297	9.868423	-173.2459
297.5	9.814857	171.7461
298	9.792736	156.547
298.5	9.840137	141.441
299	9.792656	126.1874
299.5	9.885651	110.964
300	9.879638	95.33975
300.5	9.863128	79.83022
301	9.800322	64.48474
301.5	9.820291	49.76786
302	9.888412	34.21678
302.5	9.96531	18.44856
303	9.795247	2.853717
303.5	9.935555	-12.02064
304	9.881491	-28.25206
304.5	9.835243	-43.6152
305	9.742983	-58.73398
305.5	9.859423	-74.1059
306	9.739915	-89.81522
306.5	9.779174	-105.0403
307	9.683272	-120.2565
307.5	9.799468	-135.6364
308	9.742879	-151.3392
308.5	9.759837	-166.8373
309	9.715627	177.477
309.5	9.653728	161.8908
310	9.619389	146.7794
310.5	9.584301	131.0427
311	9.563836	115.9186
311.5	9.546572	100.24
312	9.469234	84.51793
312.5	9.355593	69.77715
313	9.447855	54.28371
313.5	9.332952	39.00441
314	9.389022	23.73798
314.5	9.403947	8.283884
315	9.416468	-7.854233
315.5	9.2691	-23.48108
316	9.170867	-38.82616
316.5	9.157335	-53.58372
317	9.104866	-69.03808
317.5	9.177536	-84.1108
318	9.106408	-100.0242
318.5	9.132069	-115.0849
319	9.121032	-130.9479
319.5	9.067226	-147.0625
320	8.892446	-162.0037
320.5	8.927383	-177.2735
321	8.897286	167.7248
321.5	8.954305	151.3282
322	8.79631	136.2814
322.5	8.829055	120.2672
323	8.687652	105.0186
323.5	8.657126	89.4695
324	8.614158	74.2592
324.5	8.536336	58.32992
325	8.474174	43.44329
325.5	8.424341	27.53708
326	8.300909	12.4132
326.5	8.246604	-2.243603
327	8.374242	-17.79596
327.5	8.258066	-33.84821
328	8.202478	-49.63753
328.5	8.024573	-64.94722
329	7.959656	-79.62781
329.5	7.957106	-95.08683
330	7.831121	-110.1237
330.5	7.900383	-124.84
331	7.867984	-141.1921
331.5	7.790521	-156.1539
332	7.718159	-172.1035
332.5	7.618908	173.3092
333	7.694228	158.1737
333.5	7.609777	141.5079
334	7.439939	127.0845
334.5	7.47416	111.8474
335	7.408935	96.16819
335.5	7.275944	81.21828
336	7.255424	66.69553
336.5	7.27589	51.50192
337	7.31059	36.38096
337.5	7.280712	19.92153
338	7.202405	4.820837
338.5	7.079005	-10.71163
339	7.039513	-25.66767
339.5	6.955266	-40.44757
340	7.014986	-55.47932
340.5	6.999267	-71.25753
341	6.928395	-86.74292
341.5	6.872161	-101.8273
342	6.860962	-117.2685
342.5	6.783184	-132.6574
343	6.710463	-147.8484
343.5	6.721043	-162.122
344	6.717668	-178.2522
344.5	6.650883	166.7288
345	6.624759	151.4717
345.5	6.591627	136.1333
346	6.52178	121.0819
346.5	6.568284	106.4686
347	6.553709	90.39678
347.5	6.513758	75.03661
348	6.429886	60.06182
348.5	6.522208	44.54371
349	6.342229	28.73102
349.5	6.332529	14.91216
350	6.469741	-0.8687606
