Source File Name:	6,1,2
Signal:	FFT - Vib Velocity - Mag. & Phase

Frequency	Magnitude	Phase
[ Hz ]	[ m/s ]	[ ° ]
20	27.29227	-44.02726
20.5	26.19953	-74.98237
21	23.07171	-110.0002
21.5	19.88	-134.4428
22	17.66363	-156.4991
22.5	14.78186	-176.1239
23	15.34566	167.9621
23.5	12.49169	147.9873
24	11.31424	134.3404
24.5	10.43991	114.4605
25	9.226611	104.5211
25.5	9.074853	86.595
26	8.590186	73.1983
26.5	8.364159	57.26483
27	8.113984	43.03395
27.5	8.056631	27.63032
28	7.597866	11.28646
28.5	7.896883	-2.920748
29	7.578318	-19.21633
29.5	7.481526	-36.09297
30	7.240601	-49.02383
30.5	7.405229	-63.86017
31	7.158916	-78.21418
31.5	7.249061	-92.93395
32	7.006702	-108.3798
32.5	6.996507	-122.823
33	6.994921	-136.8304
33.5	5.793039	-154.5906
34	7.087953	-166.9949
34.5	7.008645	177.7223
35	7.07796	162.5737
35.5	6.914534	147.3197
36	6.91292	133.544
36.5	7.113222	118.7293
37	7.069913	102.6668
37.5	7.020266	87.98451
38	7.216578	71.95265
38.5	7.200794	56.53038
39	7.312737	41.60618
39.5	7.139556	25.12066
40	7.251681	10.21525
40.5	7.297961	-6.899741
41	7.184937	-23.295
41.5	7.064298	-38.80878
42	6.763653	-56.06117
42.5	6.61698	-71.59912
43	6.446249	-87.6955
43.5	6.158778	-103.152
44	5.852065	-118.2187
44.5	5.495824	-130.3872
45	5.218738	-141.5832
45.5	5.284144	-152.0622
46	5.253785	-162.0037
46.5	5.602989	-173.2297
47	5.795211	172.4112
47.5	5.86222	159.2949
48	6.034532	145.6782
48.5	6.151885	132.7783
49	6.10814	112.3875
49.5	6.740776	109.6388
50	6.311848	84.47755
50.5	6.564731	72.07953
51	6.512749	57.93552
51.5	6.773289	44.43763
52	6.740126	31.77541
52.5	6.985226	18.10235
53	7.045405	1.747737
53.5	7.208838	-13.94382
54	7.321472	-24.94973
54.5	7.355841	-40.23215
55	7.699931	-51.2634
55.5	8.062434	-68.10716
56	8.116148	-82.43333
56.5	8.333198	-96.97328
57	8.396188	-110.8434
57.5	8.577573	-125.8876
58	8.858379	-140.9184
58.5	8.97015	-155.168
59	9.227167	-169.6902
59.5	9.450967	175.2042
60	9.68475	160.1512
60.5	9.963838	145.3375
61	10.18756	131.1646
61.5	10.55268	116.44
62	10.84857	101.3513
62.5	11.13216	86.7728
63	11.42342	72.13506
63.5	11.67599	57.5144
64	11.96027	42.57697
64.5	12.25254	28.32052
65	12.65284	13.65859
65.5	12.94096	-1.387405
66	13.26887	-16.38083
66.5	13.72137	-31.24583
67	14.17803	-46.48197
67.5	14.52141	-61.45063
68	14.95095	-76.5834
68.5	15.54514	-91.49022
69	16.15479	-106.4644
69.5	16.77917	-121.9135
70	17.30724	-137.4698
70.5	17.90734	-152.5969
71	18.56114	-168.013
71.5	19.1593	176.7105
72	19.88006	161.4112
72.5	20.66528	145.5589
73	21.35413	129.7635
73.5	22.14787	114.0109
74	22.81175	98.07543
74.5	23.72408	82.34605
75	24.80912	66.38844
75.5	25.666	49.89585
76	26.61543	33.59643
76.5	27.64937	17.28668
77	28.72832	0.7615604
77.5	29.81931	-15.67688
78	30.9075	-32.27521
78.5	32.0571	-49.11884
79	33.23753	-65.98517
79.5	34.41572	-82.98674
80	35.51061	-100.0144
80.5	36.78263	-117.3543
81	38.08805	-134.9703
81.5	39.19433	-152.7306
82	40.3193	-170.5072
82.5	41.44234	171.424
83	42.48523	153.2368
83.5	43.5197	134.9594
84	44.32352	116.4683
84.5	45.01807	97.8846
85	45.61793	79.17369
85.5	45.99788	60.30381
86	46.04291	41.29753
86.5	45.79304	22.1809
87	45.24309	3.099099
87.5	44.3636	-15.9095
88	43.12997	-34.80653
88.5	41.76007	-53.34766
89	40.30914	-71.71892
89.5	38.74453	-89.74291
90	37.11024	-107.2812
90.5	35.63755	-124.4746
91	34.33361	-141.5736
91.5	33.09956	-158.372
92	31.90091	-174.9276
92.5	30.85727	168.5965
93	29.92278	152.0936
93.5	29.07453	135.5837
94	28.15649	119.1329
94.5	27.39413	102.6034
95	26.57517	85.87503
95.5	25.91573	69.3289
96	25.31487	52.51529
96.5	24.65383	35.22481
97	23.97103	17.69595
97.5	23.26547	0.1961087
98	22.47865	-17.66492
98.5	21.55976	-35.70406
99	20.56341	-53.89655
99.5	19.55867	-72.41251
100	18.2569	-91.18025
100.5	16.74414	-110.2815
101	15.08176	-129.0611
101.5	13.37267	-148.1919
102	11.38524	-166.707
102.5	9.398384	175.4895
103	7.366065	158.9574
103.5	5.447325	146.5017
104	3.912612	141.4679
104.5	3.084717	148.4266
105	3.038886	157.735
105.5	3.570476	158.7446
106	4.326027	152.8507
106.5	5.083194	143.1158
107	5.784149	129.9971
107.5	6.375706	116.4907
108	7.000516	101.6109
108.5	7.441694	85.97228
109	7.738748	70.96993
109.5	7.968161	56.20404
110	8.227592	41.22454
110.5	8.449388	25.66126
111	8.524484	11.06967
111.5	8.639346	-4.130713
112	8.697833	-19.70682
112.5	8.761189	-34.29551
113	8.85638	-49.30119
113.5	8.923195	-64.25398
114	9.00181	-79.55083
114.5	9.028335	-94.85714
115	9.066342	-109.461
115.5	9.078717	-123.465
116	9.259943	-138.1183
116.5	9.323744	-153.4221
117	9.333989	-167.8572
117.5	9.383181	177.727
118	9.368066	163.4501
118.5	9.489418	149.3997
119	9.667409	134.5195
119.5	9.789191	119.3128
120	9.828734	104.0725
120.5	9.869061	88.95103
121	9.977994	73.51262
121.5	10.02931	58.69833
122	10.15596	43.21716
122.5	10.21745	27.81042
123	10.32521	12.47741
123.5	10.45684	-3.038996
124	10.47923	-18.44001
124.5	10.52153	-33.76767
125	10.62299	-49.67776
125.5	10.6072	-65.48718
126	10.53102	-81.2434
126.5	10.38772	-96.88427
127	10.31644	-112.5113
127.5	10.29925	-128.2737
128	10.17257	-144.6203
128.5	9.972447	-160.3019
129	9.850565	-176.0266
129.5	9.770731	167.6538
130	9.583831	151.7644
130.5	9.389737	136.3396
131	9.236971	120.0673
131.5	8.945357	104.3287
132	8.664198	89.29058
132.5	8.409416	74.43328
133	8.160748	59.49144
133.5	7.894573	43.99796
134	7.482329	28.99613
134.5	7.086369	15.3472
135	6.776983	1.813704
135.5	6.501406	-12.52503
136	6.179247	-25.8911
136.5	5.941365	-38.10435
137	5.705871	-50.953
137.5	5.579598	-62.81468
138	5.558547	-75.14243
138.5	5.564281	-87.80509
139	5.516557	-100.4868
139.5	5.441965	-113.0434
140	5.422592	-124.891
140.5	5.552443	-136.4342
141	5.677553	-148.4794
141.5	5.761862	-161.6896
142	5.857942	-174.424
142.5	6.031249	171.9609
143	6.061538	158.9458
143.5	6.218372	146.0511
144	6.407846	132.1545
144.5	6.535049	117.4983
145	6.699549	104.0401
145.5	6.917245	89.64852
146	7.055897	74.82727
146.5	7.298891	60.00755
147	7.470982	44.9087
147.5	7.602809	30.01474
148	7.718984	15.27511
148.5	7.802375	0.1463519
149	7.950667	-13.81959
149.5	8.133829	-28.61514
150	8.198754	-43.68374
150.5	8.261088	-58.74105
151	8.39053	-73.55187
151.5	8.457663	-88.61056
152	8.459395	-103.0989
152.5	8.589958	-118.3861
153	8.645967	-133.5209
153.5	8.797342	-148.3387
154	8.924821	-163.5618
154.5	8.996312	-179.0706
155	9.120344	165.3154
155.5	9.196928	150.1647
156	9.272964	135.0686
156.5	9.270357	119.8934
157	9.353757	104.8678
157.5	9.417288	89.89821
158	9.458427	75.03079
158.5	9.441628	59.86373
159	9.475573	45.30654
159.5	9.611425	29.93534
160	9.620551	14.49276
160.5	9.592701	-0.6127843
161	9.606021	-16.15515
161.5	9.633163	-31.70271
162	9.607217	-46.83643
162.5	9.549438	-61.80476
163	9.530782	-76.72656
163.5	9.57584	-91.38023
164	9.693958	-106.2262
164.5	9.716153	-120.9912
165	9.782934	-135.9804
165.5	9.801929	-151.371
166	9.836102	-166.155
166.5	9.875216	179.1416
167	9.886522	164.0113
167.5	9.904631	148.8068
168	10.01458	133.5659
168.5	9.986752	118.289
169	9.989671	103.3319
169.5	10.09708	88.04871
170	10.14196	72.37292
170.5	10.19109	57.60006
171	10.28546	42.3038
171.5	10.34305	26.68558
172	10.42376	11.11855
172.5	10.48427	-4.108856
173	10.5115	-19.6165
173.5	10.50242	-35.42319
174	10.51031	-51.31705
174.5	10.40688	-66.7906
175	10.37433	-82.04161
175.5	10.34431	-97.79163
176	10.23541	-113.8142
176.5	10.28335	-129.148
177	10.25007	-145.4375
177.5	10.04151	-161.4539
178	9.973148	-176.8555
178.5	10.00806	167.1394
179	9.847839	150.9267
179.5	9.657554	135.6498
180	9.547173	119.8001
180.5	9.343065	104.2113
181	9.197849	89.38135
181.5	9.050668	73.90616
182	8.760889	58.15793
182.5	8.581557	43.15387
183	8.350872	28.15431
183.5	8.092093	13.58225
184	7.971294	-1.241851
184.5	7.823722	-17.16363
185	7.537811	-32.17246
185.5	7.316062	-46.30691
186	7.085829	-60.65067
186.5	6.924326	-74.58636
187	6.924841	-88.52486
187.5	6.775868	-103.1114
188	6.548939	-116.6866
188.5	6.519053	-130.3563
189	6.411144	-144.7027
189.5	6.262813	-157.6725
190	6.265784	-170.772
190.5	6.193727	174.8031
191	6.102218	160.9893
191.5	6.098164	147.4556
192	6.084516	134.1331
192.5	6.065137	119.7169
193	6.082242	105.2676
193.5	6.059817	91.43655
194	6.096094	77.84941
194.5	6.139181	63.11421
195	6.07509	48.89651
195.5	6.128279	35.50082
196	6.247442	21.6096
196.5	6.231117	7.16613
197	6.253694	-6.800552
197.5	6.29878	-21.43845
198	6.330413	-34.73672
198.5	6.423894	-48.88727
199	6.494388	-64.43399
199.5	6.448052	-79.3719
200	6.493609	-93.73864
200.5	6.534282	-108.9656
201	6.449327	-123.4584
201.5	6.529175	-138.0856
202	6.658773	-153.2433
202.5	6.633415	-168.5341
203	6.615056	177.0177
203.5	6.634855	162.2725
204	6.762139	147.9848
204.5	6.843237	132.569
205	6.765149	117.3352
205.5	6.722208	103.0598
206	6.768284	88.1171
206.5	6.756119	73.34313
207	6.730262	59.13044
207.5	6.756633	44.01376
208	6.786621	28.43566
208.5	6.717227	13.56212
209	6.718216	-0.966237
209.5	6.724701	-15.82715
210	6.775744	-31.18013
210.5	6.778102	-46.59286
211	6.763437	-61.44006
211.5	6.71181	-76.32953
212	6.658722	-91.48042
212.5	6.669447	-106.061
213	6.656164	-120.6648
213.5	6.6239	-135.3727
214	6.61111	-150.5278
214.5	6.573358	-165.5479
215	6.539606	179.5302
215.5	6.483391	165.0457
216	6.475092	150.2483
216.5	6.476493	134.9723
217	6.4864	119.953
217.5	6.442772	105.4044
218	6.410239	90.26455
218.5	6.430436	75.31981
219	6.380638	60.32588
219.5	6.366841	46.17676
220	6.374191	31.56976
220.5	6.374122	16.31982
221	6.335151	1.40753
221.5	6.357857	-13.1327
222	6.286539	-28.49949
222.5	6.140353	-43.419
223	6.110125	-57.89855
223.5	6.119866	-71.95376
224	6.124193	-86.90608
224.5	6.133606	-102.2566
225	6.076511	-118.0042
225.5	6.03523	-132.8116
226	6.045112	-147.3764
226.5	6.002006	-162.8607
227	5.95111	-178.1003
227.5	5.936031	166.9207
228	5.853154	152.3546
228.5	5.787364	138.5148
229	5.808765	123.5436
229.5	5.815466	108.6683
230	5.77014	93.77907
230.5	5.70979	78.74543
231	5.540038	63.48703
231.5	5.472435	49.57503
232	5.51491	35.18593
232.5	5.412387	20.07972
233	5.328063	5.648599
233.5	5.3226	-9.369607
234	5.280122	-23.92817
234.5	5.260224	-38.0896
235	5.208056	-53.13236
235.5	5.144218	-67.9752
236	5.123382	-82.34083
236.5	5.073196	-96.61225
237	4.953047	-110.6771
237.5	4.912072	-124.5982
238	4.905188	-138.6945
238.5	4.906991	-152.35
239	4.915864	-166.4533
239.5	4.857508	178.6123
240	4.869065	164.8195
240.5	4.961113	150.0557
241	4.910252	134.96
241.5	4.860033	120.7906
242	4.89489	105.7972
242.5	4.858581	91.15039
243	4.833017	78.24973
243.5	4.897233	64.12981
244	4.950649	49.33655
244.5	5.004935	34.58333
245	4.992078	20.07093
245.5	4.911841	6.012391
246	4.955822	-7.964207
246.5	5.017345	-22.67777
247	5.064485	-37.51321
247.5	5.062227	-52.1376
248	5.019681	-67.96248
248.5	4.99049	-82.70377
249	5.056021	-97.22141
249.5	5.021023	-112.4836
250	4.974034	-127.0144
250.5	5.018886	-141.6512
251	5.098313	-156.2165
251.5	5.105304	-170.9299
252	5.146007	174.5961
252.5	5.182761	159.0284
253	5.184174	143.8236
253.5	5.163463	129.5804
254	5.129221	115.1235
254.5	5.143095	100.0767
255	5.143775	85.00681
255.5	5.115788	70.67645
256	5.136806	56.44307
256.5	5.175674	40.99261
257	5.190143	25.33124
257.5	5.18664	10.6859
258	5.217133	-4.313501
258.5	5.170211	-19.70686
259	5.188604	-35.05312
259.5	5.193274	-50.21365
260	5.119261	-64.69557
260.5	5.064228	-79.2757
261	5.061732	-93.67712
261.5	5.128725	-108.0005
262	5.200549	-122.893
262.5	5.175784	-138.7816
263	5.08918	-153.8366
263.5	5.159611	-168.7523
264	5.177117	175.7765
264.5	5.111013	160.634
265	5.087095	145.1101
265.5	5.071639	130.0401
266	5.064025	115.3609
266.5	5.079083	101.0508
267	5.130055	85.96257
267.5	5.151682	69.95657
268	5.109889	54.85281
268.5	5.061547	40.30865
269	5.007276	26.00817
269.5	5.062672	10.39951
270	5.03238	-4.709435
270.5	5.005926	-19.49276
271	4.945251	-35.24955
271.5	4.880082	-50.50159
272	4.838018	-65.67117
272.5	4.870175	-80.37958
273	4.826287	-95.86216
273.5	4.765466	-111.3827
274	4.798329	-126.3403
274.5	4.837838	-141.6475
275	4.800941	-156.7767
275.5	4.757325	-172.5038
276	4.743515	172.3186
276.5	4.722252	157.0303
277	4.626767	141.9883
277.5	4.57086	127.7225
278	4.557917	112.2012
278.5	4.548131	96.50324
279	4.433904	81.53083
279.5	4.359668	66.59612
280	4.287803	50.87508
280.5	4.245764	36.34328
281	4.221065	21.67155
281.5	4.158387	6.445034
282	4.100528	-8.675678
282.5	4.064786	-23.32658
283	4.068448	-37.97662
283.5	4.016696	-52.13461
284	4.011687	-67.29622
284.5	4.012996	-83.51724
285	3.956169	-98.56186
285.5	3.869486	-113.6324
286	3.764577	-128.6796
286.5	3.73301	-143.7663
287	3.678748	-159.3842
287.5	3.606544	-173.4044
288	3.581886	171.8972
288.5	3.524691	155.9019
289	3.484146	140.8709
289.5	3.459627	127.7379
290	3.489396	112.2283
290.5	3.412987	96.1926
291	3.37742	81.52552
291.5	3.305212	66.98754
292	3.231812	53.1421
292.5	3.191397	38.50772
293	3.158187	23.47136
293.5	3.114271	8.757844
294	3.040092	-5.497956
294.5	2.914229	-20.7456
295	2.870605	-34.74572
295.5	2.915262	-48.5663
296	2.913147	-64.5228
296.5	2.860763	-80.48942
297	2.776478	-97.39648
297.5	2.669318	-112.294
298	2.620876	-125.1405
298.5	2.581944	-139.0826
299	2.502103	-153.7251
299.5	2.495723	-166.4903
300	2.576082	-179.9296
300.5	2.536549	165.1068
301	2.498359	149.7609
301.5	2.461412	134.8039
302	2.405311	119.7702
302.5	2.341528	105.5854
303	2.20511	91.57423
303.5	2.178202	78.44511
304	2.227402	64.62823
304.5	2.21678	49.7702
305	2.129299	35.30071
305.5	2.143042	21.20674
306	2.171669	5.581481
306.5	2.096725	-8.141922
307	2.066269	-21.47894
307.5	2.032383	-35.89075
308	2.032063	-50.41523
308.5	2.034019	-64.61047
309	1.966166	-77.96252
309.5	1.899745	-92.63229
310	1.894387	-106.8765
310.5	1.878479	-121.8052
311	1.813624	-133.9294
311.5	1.856035	-148.4399
312	1.825993	-164.9171
312.5	1.831405	-179.0844
313	1.846315	166.1353
313.5	1.762969	151.9637
314	1.74373	138.7815
314.5	1.812649	124.2352
315	1.795088	110.0767
315.5	1.739542	97.63987
316	1.75677	83.73222
316.5	1.731323	68.29671
317	1.711112	56.43615
317.5	1.694804	42.64737
318	1.643587	29.23639
318.5	1.621356	13.83646
319	1.629993	-0.445765
319.5	1.601388	-13.8351
320	1.560669	-28.68553
320.5	1.530701	-45.51266
321	1.484792	-58.34674
321.5	1.534263	-70.30853
322	1.546741	-84.33237
322.5	1.550076	-99.79199
323	1.582789	-114.8993
323.5	1.562938	-129.0579
324	1.559968	-140.9376
324.5	1.51872	-155.2067
325	1.508187	-169.2761
325.5	1.512364	179.4699
326	1.56653	167.3745
326.5	1.55982	151.2215
327	1.551531	137.2617
327.5	1.588004	120.8261
328	1.537742	106.5115
328.5	1.496803	93.11555
329	1.492633	78.74726
329.5	1.519352	64.68204
330	1.56848	50.45513
330.5	1.513434	37.21091
331	1.493511	24.24047
331.5	1.580942	11.92773
332	1.668342	-3.138778
332.5	1.641712	-17.62271
333	1.638284	-31.72771
333.5	1.60998	-48.048
334	1.620927	-60.58496
334.5	1.666932	-74.17741
335	1.656009	-90.85134
335.5	1.617703	-108.4921
336	1.592163	-123.7667
336.5	1.578133	-137.0351
337	1.543593	-150.4493
337.5	1.597368	-164.4391
338	1.654972	179.2043
338.5	1.680683	165.0662
339	1.645145	151.1736
339.5	1.646449	139.2429
340	1.734617	124.6846
340.5	1.772838	110.3576
341	1.771002	97.06153
341.5	1.780088	81.59444
342	1.774133	64.70243
342.5	1.710542	49.55161
343	1.673641	35.93993
343.5	1.619632	21.49971
344	1.582221	6.853124
344.5	1.658118	-8.004359
345	1.659495	-22.51814
345.5	1.682652	-37.03759
346	1.669492	-54.02199
346.5	1.6883	-68.69904
347	1.724303	-81.96323
347.5	1.745846	-95.72652
348	1.728477	-111.6917
348.5	1.721506	-125.6504
349	1.748011	-141.2788
349.5	1.698114	-153.3552
350	1.710105	-167.3789
