Source File Name:	12,1,3
Signal:	FFT - Vib Velocity - Mag. & Phase

Frequency	Magnitude	Phase
[ Hz ]	[ m/s ]	[ ° ]
20	7.051065	-41.99379
20.5	5.132029	-83.05408
21	3.061197	-113.087
21.5	1.380261	-113.8673
22	1.003338	99.8413
22.5	0.4538336	26.80342
23	2.231909	-1.524237
23.5	2.057302	-13.41509
24	2.420623	-41.16114
24.5	2.754229	-52.32485
25	2.925255	-78.12034
25.5	3.329509	-98.58285
26	3.537406	-116.7342
26.5	3.718113	-132.4369
27	4.008976	-150.275
27.5	4.357349	-166.103
28	4.335552	173.5738
28.5	4.527512	153.453
29	4.868357	136.6794
29.5	4.847822	120.6663
30	5.056177	102.9818
30.5	5.357621	82.08889
31	5.549233	69.236
31.5	5.457487	50.32125
32	5.603672	31.75175
32.5	5.522246	14.03594
33	5.744442	-2.780746
33.5	6.201192	-20.51854
34	5.261257	-41.11493
34.5	5.583828	-60.34119
35	5.605242	-75.08907
35.5	5.683866	-92.28865
36	5.70126	-115.9847
36.5	5.74025	-130.8703
37	5.478445	-147.9516
37.5	5.49386	-165.3991
38	5.513436	175.4054
38.5	5.543121	153.8729
39	5.246806	135.081
39.5	5.041108	112.6671
40	4.735942	92.26314
40.5	4.422663	76.75065
41	3.99612	58.25373
41.5	3.678104	38.05173
42	3.157562	28.62378
42.5	2.878289	19.80441
43	2.688868	4.810153
43.5	2.704553	-5.07339
44	2.609771	-22.77905
44.5	2.448781	-31.08368
45	2.550084	-43.63935
45.5	2.64563	-61.48896
46	2.716789	-72.18345
46.5	2.941955	-89.77739
47	2.677948	-111.1519
47.5	3.073397	-120.3902
48	3.141637	-137.31
48.5	2.931042	-152.0346
49	3.15303	-169.767
49.5	3.226911	176.0056
50	3.268281	162.7761
50.5	3.298607	141.9917
51	3.099978	123.0139
51.5	3.27476	106.2099
52	3.364594	90.83898
52.5	3.135818	75.60496
53	3.701216	58.07911
53.5	3.641069	42.61649
54	3.540651	27.68778
54.5	3.318741	10.03851
55	3.694502	-7.443405
55.5	3.352594	-21.49458
56	3.324365	-40.4207
56.5	3.301969	-56.23622
57	3.597671	-77.01716
57.5	3.786899	-94.24362
58	3.541543	-107.969
58.5	3.713129	-129.9606
59	3.830818	-143.4953
59.5	3.670823	-155.799
60	3.81492	-173.5602
60.5	3.776829	168.8849
61	3.982376	154.9411
61.5	3.69788	132.532
62	3.865068	114.822
62.5	3.871083	95.25986
63	3.892273	82.65184
63.5	4.045769	69.00407
64	4.13216	48.52485
64.5	4.40398	33.08952
65	4.499702	17.80797
65.5	4.448012	-2.115996
66	4.226413	-19.64894
66.5	4.248905	-37.34468
67	4.213986	-53.79904
67.5	4.333671	-72.4892
68	4.456769	-87.57433
68.5	4.806212	-105.6082
69	4.779957	-122.4273
69.5	4.759271	-143.0413
70	4.845828	-158.3707
70.5	5.054948	-172.5301
71	4.831942	167.6222
71.5	4.763667	150.0129
72	4.879982	133.8791
72.5	4.900337	117.3563
73	5.176747	99.56895
73.5	5.255861	80.30146
74	5.163819	64.46786
74.5	5.317241	48.45242
75	5.227362	30.18187
75.5	5.636513	16.57684
76	5.838671	-2.454576
76.5	5.499641	-19.39935
77	5.611787	-37.80692
77.5	5.904017	-53.5317
78	5.791989	-70.30117
78.5	6.126611	-88.26543
79	6.212317	-105.8587
79.5	6.41785	-124.7021
80	6.475876	-142.3459
80.5	6.52334	-158.6628
81	6.780985	-176.0322
81.5	6.773337	167.2325
82	6.77999	151.7523
82.5	6.786814	134.0883
83	7.43356	115.3226
83.5	7.152495	99.93636
84	7.223332	80.57954
84.5	7.274991	63.01696
85	7.614078	47.45919
85.5	7.924856	29.96714
86	7.921494	12.18949
86.5	8.268853	-3.956136
87	8.396647	-21.9172
87.5	8.419734	-39.23012
88	8.471118	-55.81747
88.5	8.697778	-75.57503
89	8.827161	-89.9822
89.5	8.751564	-109.8294
90	8.968089	-126.3366
90.5	9.592781	-143.8449
91	9.656975	-161.6591
91.5	9.626676	-177.8788
92	9.926257	164.6312
92.5	10.08001	147.5774
93	10.2445	130.5223
93.5	10.2902	113.8273
94	10.46826	95.26163
94.5	10.84767	78.51374
95	10.70651	60.91927
95.5	11.19122	43.384
96	11.47699	26.42253
96.5	11.67424	10.18536
97	11.86691	-6.776621
97.5	12.26149	-23.96686
98	12.49997	-41.99646
98.5	12.66825	-57.56753
99	13.01484	-74.60518
99.5	13.47839	-92.72296
100	14.04909	-109.429
100.5	14.47871	-126.7762
101	15.14312	-144.3004
101.5	15.90926	-161.2601
102	16.41269	-178.6106
102.5	17.32782	164.6397
103	18.75173	146.5474
103.5	19.78903	127.9544
104	21.40844	109.0964
104.5	22.77538	89.37395
105	24.4991	67.77312
105.5	25.9077	46.67288
106	26.99038	25.29817
106.5	28.12747	3.053103
107	29.07616	-19.46922
107.5	29.44125	-41.73967
108	29.76573	-64.39796
108.5	30.2068	-87.08009
109	29.89904	-110.187
109.5	29.38107	-133.2648
110	28.69156	-156.2621
110.5	27.86156	-179.9189
111	26.43887	157.817
111.5	24.97078	134.6921
112	23.41336	111.7244
112.5	21.87159	89.38464
113	19.86658	67.6861
113.5	17.95683	45.67134
114	16.41506	25.13189
114.5	14.41829	3.830376
115	12.79622	-15.65085
115.5	11.43738	-34.93789
116	10.20546	-54.33217
116.5	9.147824	-71.6757
117	8.033924	-92.48901
117.5	7.23167	-111.0757
118	6.488233	-130.5795
118.5	5.340913	-145.898
119	4.469309	-166.0348
119.5	4.058055	175.2322
120	3.199246	156.8558
120.5	2.48407	139.9931
121	2.099347	119.4055
121.5	1.639222	93.15082
122	0.9667665	66.10159
122.5	0.4187489	-9.010673
123	0.3426322	-58.87208
123.5	0.7244859	-126.8976
124	1.253886	-154.9833
124.5	1.934259	-170.8553
125	2.048182	171.1018
125.5	2.709558	154.2034
126	3.106596	133.2567
126.5	3.601411	119.2235
127	4.261183	100.5501
127.5	4.575726	81.23273
128	5.017169	63.10244
128.5	5.601662	47.28483
129	6.054945	28.57977
129.5	6.805753	9.43887
130	7.501303	-8.10893
130.5	7.883111	-25.41926
131	8.597782	-46.73275
131.5	9.045146	-64.72625
132	9.75673	-81.79456
132.5	10.33673	-100.536
133	11.01829	-119.6467
133.5	11.70811	-138.2541
134	12.54298	-157.9339
134.5	12.78951	-177.2602
135	13.50367	163.0579
135.5	14.18266	144.6853
136	14.4395	124.926
136.5	15.03895	105.2151
137	15.66022	87.02106
137.5	16.09129	68.35142
138	16.64892	49.50498
138.5	17.23414	29.87757
139	17.79999	10.94063
139.5	18.18477	-9.39493
140	18.37091	-27.52476
140.5	19.01764	-47.5667
141	19.78551	-67.20995
141.5	19.8509	-86.65263
142	20.35223	-106.4387
142.5	20.87078	-126.0214
143	21.12447	-145.4463
143.5	21.15765	-165.3345
144	21.20467	174.1768
144.5	21.4874	154.7093
145	21.11381	134.409
145.5	21.01583	114.7094
146	20.89979	94.36082
146.5	20.78951	75.11647
147	20.11834	55.96041
147.5	19.78935	36.63527
148	19.45731	18.11397
148.5	18.9197	-0.4959417
149	18.29794	-19.36199
149.5	17.73825	-37.93869
150	17.45539	-55.83176
150.5	16.99926	-73.86694
151	16.65775	-92.03804
151.5	16.36733	-109.4515
152	16.30027	-127.3053
152.5	15.78201	-143.6985
153	15.64871	-161.603
153.5	15.45644	-179.2822
154	15.18384	163.8578
154.5	14.85107	146.2568
155	14.70444	128.5956
155.5	14.67185	111.0136
156	14.59749	93.44569
156.5	14.40639	76.19068
157	14.44675	57.90731
157.5	14.09646	40.42298
158	13.93416	25.0689
158.5	13.81045	6.828778
159	13.82535	-10.70634
159.5	13.64913	-27.64045
160	13.21887	-45.02813
160.5	13.36755	-62.94486
161	13.35668	-79.7692
161.5	13.20574	-98.52776
162	13.1097	-115.4448
162.5	13.00956	-132.9715
163	12.88236	-149.692
163.5	12.98276	-167.0975
164	12.78482	174.5114
164.5	12.47671	156.882
165	12.35588	140.1521
165.5	12.06811	122.9897
166	11.82334	104.0259
166.5	11.93951	87.30659
167	11.37206	69.33819
167.5	11.35604	53.15291
168	11.17714	35.59735
168.5	11.0927	18.68657
169	10.88715	2.192081
169.5	10.56321	-14.79861
170	10.39249	-30.74302
170.5	10.48367	-47.45411
171	10.16701	-64.5779
171.5	9.841591	-82.99006
172	9.973397	-100.0448
172.5	9.674482	-114.6139
173	9.77353	-133.3267
173.5	9.570433	-150.0243
174	9.564025	-166.1425
174.5	9.613039	178.1219
175	9.317848	160.1549
175.5	9.204057	144.0764
176	9.137808	126.6063
176.5	8.881927	109.5996
177	8.640686	91.41763
177.5	8.652942	73.96829
178	8.527397	58.13157
178.5	8.41856	40.9046
179	8.456417	23.53435
179.5	8.177056	6.037334
180	8.116912	-10.32521
180.5	7.495538	-25.79291
181	7.446261	-42.7762
181.5	7.300325	-60.83102
182	6.970821	-76.29344
182.5	6.705258	-94.11817
183	6.736016	-112.4159
183.5	6.592917	-126.777
184	6.508395	-143.9502
184.5	6.220841	-162.4404
185	6.050932	-176.6415
185.5	5.73904	166.857
186	5.469142	152.2669
186.5	5.235698	134.3632
187	4.815546	116.5887
187.5	4.567266	103.0755
188	4.267371	88.15857
188.5	4.193293	70.11635
189	4.157156	57.7053
189.5	3.869382	42.7197
190	3.525323	30.38972
190.5	3.650383	15.73513
191	3.414806	4.105132
191.5	2.987673	-9.31283
192	2.871823	-18.72753
192.5	2.677418	-30.28264
193	2.788399	-40.89061
193.5	2.845781	-50.06053
194	2.737686	-63.42922
194.5	3.20579	-78.89353
195	3.085704	-90.32695
195.5	3.22143	-97.27276
196	3.352344	-112.865
196.5	3.794328	-126.2489
197	4.067601	-135.4597
197.5	4.191903	-154.3577
198	4.374902	-166.5408
198.5	4.701146	176.0439
199	4.995974	160.8302
199.5	5.186827	144.7036
200	5.236369	124.3813
200.5	5.46991	111.8946
201	5.798755	96.19829
201.5	5.926545	80.75649
202	6.186471	61.85816
202.5	6.593445	46.95953
203	6.474012	31.78653
203.5	6.795836	15.86895
204	6.936225	-2.12692
204.5	7.299123	-19.22649
205	7.269732	-35.16201
205.5	7.230426	-53.00417
206	7.620831	-69.37593
206.5	7.836782	-84.7356
207	7.835889	-101.9081
207.5	8.049523	-117.4594
208	8.665071	-134.5589
208.5	8.588952	-151.221
209	8.671418	-168.0009
209.5	8.758897	175.1283
210	8.947421	157.4047
210.5	9.222916	140.9448
211	9.040099	123.3897
211.5	9.264657	106.1947
212	9.605971	88.6077
212.5	9.330353	73.11451
213	9.668655	55.64971
213.5	9.725704	38.2578
214	9.604436	22.49034
214.5	9.561355	5.773189
215	9.521644	-11.14973
215.5	9.601212	-28.19918
216	9.72225	-45.06299
216.5	9.581413	-61.5412
217	9.619443	-78.53995
217.5	9.845702	-95.37421
218	9.874929	-110.1938
218.5	9.699887	-128.0262
219	10.00053	-143.9178
219.5	9.794342	-160.0016
220	9.818174	-176.6668
220.5	9.657616	165.4786
221	9.729866	149.8496
221.5	9.826037	132.9207
222	9.696143	116.0181
222.5	9.904514	100.2636
223	9.875998	82.31927
223.5	9.93263	66.99165
224	9.719266	50.70227
224.5	9.674604	32.23968
225	9.426123	18.3691
225.5	9.377999	1.117391
226	9.088668	-14.5017
226.5	9.266774	-31.56461
227	9.243186	-46.76578
227.5	9.268593	-62.26241
228	9.42083	-79.63144
228.5	9.296646	-95.83134
229	9.341481	-111.401
229.5	9.257922	-126.2627
230	9.061896	-144.5136
230.5	9.233274	-158.8571
231	8.965508	-174.9089
231.5	9.060213	168.8507
232	9.103299	151.4939
232.5	9.266743	134.9981
233	9.036902	119.2262
233.5	9.102872	102.844
234	8.951358	85.78493
234.5	8.937903	71.71658
235	8.99772	55.69031
235.5	8.622228	39.48103
236	8.926789	23.0603
236.5	8.656211	8.003781
237	8.627181	-8.654914
237.5	8.645379	-25.8346
238	8.470143	-41.95953
238.5	8.551714	-56.10318
239	8.591557	-72.82539
239.5	8.380222	-88.10777
240	8.687461	-104.7712
240.5	8.477812	-119.762
241	8.364797	-134.8378
241.5	8.335879	-152.2772
242	8.441172	-166.8495
242.5	8.142525	177.3049
243	8.14613	160.1519
243.5	8.343641	144.9448
244	8.340924	129.1233
244.5	8.22736	111.7123
245	8.155889	97.78852
245.5	8.27593	81.32196
246	8.29864	65.83527
246.5	8.010457	51.09023
247	8.14034	35.65301
247.5	8.056843	18.70443
248	8.039073	4.483971
248.5	7.753269	-12.78096
249	8.062874	-28.17559
249.5	8.201244	-43.90404
250	7.911305	-60.04061
250.5	8.248018	-74.43554
251	8.30724	-92.15171
251.5	8.249372	-107.5775
252	8.13484	-120.9368
252.5	8.067626	-138.5696
253	8.07201	-153.1095
253.5	8.1279	-170.0826
254	7.892478	175.642
254.5	8.153756	157.179
255	8.276161	141.8775
255.5	8.148414	126.5157
256	8.27155	109.9661
256.5	8.272199	94.24471
257	8.319852	79.18267
257.5	8.391985	65.03465
258	8.065611	47.51303
258.5	8.176318	32.19666
259	8.143528	16.6633
259.5	8.205157	0.1625201
260	7.977867	-16.63477
260.5	8.264451	-32.79926
261	8.198845	-46.79089
261.5	8.477076	-63.13933
262	8.358636	-79.81088
262.5	8.484001	-94.37424
263	8.665551	-110.5239
263.5	8.251293	-125.3145
264	8.352841	-142.6487
264.5	8.466425	-158.493
265	8.392643	-173.6057
265.5	8.441252	169.599
266	8.569783	151.5796
266.5	8.792261	137.3366
267	8.690224	119.8843
267.5	8.673259	104.316
268	8.815371	88.5135
268.5	8.722082	72.74838
269	8.743039	56.8503
269.5	8.449608	40.6899
270	8.532992	23.60363
270.5	8.632121	8.73006
271	8.569311	-9.052296
271.5	8.278402	-26.91575
272	8.439094	-40.63129
272.5	8.49364	-56.30112
273	8.426513	-72.48882
273.5	8.530445	-88.39055
274	8.524617	-103.5582
274.5	8.349231	-118.9204
275	8.527172	-134.2838
275.5	8.204518	-151.8542
276	8.594052	-166.7202
276.5	8.343424	176.2491
277	8.294501	159.763
277.5	8.636382	142.9854
278	8.466743	127.0703
278.5	8.453209	111.9118
279	8.520173	94.58027
279.5	8.589483	79.923
280	8.426606	65.19202
280.5	8.399161	47.75471
281	8.33028	33.53264
281.5	8.482774	14.59159
282	8.247392	-0.8035349
282.5	8.061339	-18.24246
283	8.252837	-34.06764
283.5	8.117761	-50.02889
284	8.099819	-64.60115
284.5	8.215243	-80.15669
285	8.328868	-96.49377
285.5	8.260063	-110.3173
286	8.158287	-125.9748
286.5	8.329471	-142.3007
287	8.199111	-160.5618
287.5	8.276172	-175.5439
288	8.15996	169.3361
288.5	8.555234	148.7102
289	8.320305	133.6441
289.5	8.417309	118.4123
290	8.41262	100.9666
290.5	8.490049	85.18477
291	8.340794	69.8351
291.5	8.080315	54.6898
292	8.087572	37.56471
292.5	7.984094	20.58128
293	7.993353	4.455945
293.5	7.901094	-11.37271
294	7.554068	-30.12417
294.5	7.85288	-43.7501
295	7.943082	-59.69527
295.5	7.827971	-76.17149
296	7.858036	-91.82962
296.5	7.832729	-105.5613
297	7.82368	-123.0073
297.5	7.572368	-139.0099
298	7.518196	-155.1118
298.5	7.63415	-170.6306
299	7.721244	172.3565
299.5	7.445143	155.8162
300	7.726821	138.3543
300.5	7.95468	121.4451
301	7.532112	106.2332
301.5	7.516648	90.03716
302	7.755134	74.0497
302.5	7.260547	58.11273
303	7.239141	42.66964
303.5	7.089725	25.93376
304	7.324587	10.26071
304.5	6.931519	-7.773878
305	6.78381	-23.84052
305.5	6.848188	-39.93225
306	6.920309	-56.59346
306.5	6.832413	-70.01459
307	6.69837	-87.08932
307.5	6.803192	-102.5256
308	6.657548	-115.8949
308.5	6.621734	-133.2949
309	6.504054	-147.3383
309.5	6.478145	-165.1987
310	6.438985	-178.6261
310.5	6.469977	163.3583
311	6.621107	145.7267
311.5	6.523103	127.8923
312	6.569401	114.9777
312.5	6.468155	98.96851
313	6.537077	80.68593
313.5	6.583166	68.34367
314	6.421023	51.62017
314.5	6.332866	35.30931
315	6.159201	19.18225
315.5	6.359258	2.387509
316	6.067326	-14.35816
316.5	6.025078	-33.62728
317	5.900271	-47.80411
317.5	6.200346	-61.82151
318	6.037858	-78.41456
318.5	6.025256	-95.59364
319	6.215685	-109.4489
319.5	5.896343	-123.8445
320	5.843898	-140.4738
320.5	5.771295	-156.8714
321	5.595105	-173.0097
321.5	5.805267	172.0069
322	5.661636	154.1281
322.5	5.684215	136.9774
323	5.857809	121.3049
323.5	5.934261	108.0174
324	5.869053	90.15391
324.5	6.072095	73.96342
325	5.958886	59.75521
325.5	5.69157	43.69867
326	5.756328	25.03231
326.5	5.727885	9.678958
327	5.598899	-8.53627
327.5	5.492548	-24.47405
328	5.417925	-41.8679
328.5	5.687791	-58.8486
329	5.644658	-74.2327
329.5	5.454157	-89.10075
330	5.554248	-106.2281
330.5	5.375005	-120.8183
331	5.341698	-135.7952
331.5	5.052232	-153.6237
332	5.263572	-168.6267
332.5	4.964392	175.2325
333	4.945309	158.138
333.5	4.925355	142.9251
334	5.149531	123.7732
334.5	5.186645	111.2451
335	5.163986	96.40832
335.5	5.327766	78.70974
336	5.362967	62.34653
336.5	5.235794	45.03591
337	5.027708	30.54226
337.5	5.042464	10.8669
338	4.850195	-3.232468
338.5	4.570087	-21.91113
339	4.79646	-36.74611
339.5	4.910535	-55.73697
340	5.04971	-71.17606
340.5	4.764554	-87.04627
341	4.726558	-105.0982
341.5	4.738475	-118.9896
342	4.619905	-133.8816
342.5	4.502568	-148.5131
343	4.398977	-164.7477
343.5	4.446766	177.5359
344	4.060707	161.7767
344.5	4.390609	144.2409
345	4.343468	127.8411
345.5	4.527651	111.0394
346	4.505435	97.31973
346.5	4.357889	79.51527
347	4.640451	62.50001
347.5	4.646929	48.71753
348	4.36003	33.05576
348.5	4.200502	12.55035
349	3.961607	-3.901845
349.5	3.990942	-16.17535
350	4.077585	-38.23262
